#version,serial,flight,call,time,rssi,lqi,state,state_name,acceleration,pressure,altitude,height,speed,temperature,drogue_voltage,main_voltage,battery_voltage,accel_x,accel_y,accel_z,gyro_roll,gyro_pitch,gyro_yaw,mag_x,mag_y,mag_z,tilt,pyro,igniter_a,igniter_b,igniter_c,igniter_d,connected,locked,nsat,latitude,longitude,altitude,year,month,day,hour,minute,second,pad_dist,pad_range,pad_az,pad_el,pdop,hdop,vdop
6, 11224, 1,KE9ERI,     0.00, -99,  14, 3,   boost,  125.53,  99505.00,  152.61,   19.58,    0.00, 23.4, 8.04, 8.10, 3.87, 137.52,  -1.75,   0.03, -58.96,  29.60,   2.69,   0.13,  -0.26,   0.13,   6.00, 8.09, 0.00, 0.00, 8.04, 8.04, 1, 0,  0,2147483647.0000000,2147483647.0000000,2147483647.0,2147483647,2147483647,2147483647,2147483647,2147483647,2147483647,        0,        0,   0,   0,  23.1,  23.1,  23.1
6, 11224, 1,KE9ERI,     0.29, -79,   7, 3,   boost,  125.53,  99505.00,  152.61,   19.58,    0.00, 23.4, 8.04, 8.10, 3.87, 137.52,  -1.75,   0.03, -58.96,  29.60,   2.69,   0.13,  -0.26,   0.13,   6.00, 8.09, 0.00, 0.00, 8.04, 8.04, 1, 0,  0,2147483647.0000000,2147483647.0000000,2147483647.0,2147483647,2147483647,2147483647,2147483647,2147483647,2147483647,        0,        0,   0,   0,  23.1,  23.1,  23.1
6, 11224, 1,KE9ERI,     0.32, -95,  12, 3,   boost,  125.53,  99505.00,  152.61,   19.58,    0.00, 23.4, 8.04, 8.10, 3.87, 137.52,  -1.75,   0.03, -58.96,  29.60,   2.69,   0.13,  -0.26,   0.13,   6.00, 8.09, 0.00, 0.00, 8.04, 8.04, 1, 0,  0,2147483647.0000000,2147483647.0000000,2147483647.0,2147483647,2147483647,2147483647,2147483647,2147483647,2147483647,        0,        0,   0,   0,  23.1,  23.1,  23.1
6, 11224, 1,KE9ERI,     0.40, -92,   9, 3,   boost,  125.53,  99505.00,  152.61,   19.58,    0.00, 23.4, 8.04, 8.10, 3.87, 137.52,  -1.75,   0.03, -58.96,  29.60,   2.69,   0.13,  -0.26,   0.13,   6.00, 8.09, 0.00, 0.00, 8.04, 8.04, 1, 0,  0,2147483647.0000000,2147483647.0000000,2147483647.0,2147483647,2147483647,2147483647,2147483647,2147483647,2147483647,        0,        0,   0,   0,  23.1,  23.1,  23.1
6, 11224, 1,KE9ERI,     0.43, -90,   6, 3,   boost,  125.53,  99505.00,  152.61,   19.58,    0.00, 23.4, 8.04, 8.10, 3.87, 137.52,  -1.75,   0.03, -58.96,  29.60,   2.69,   0.13,  -0.26,   0.13,   6.00, 8.09, 0.00, 0.00, 8.04, 8.10, 1, 0,  0,2147483647.0000000,2147483647.0000000,2147483647.0,2147483647,2147483647,2147483647,2147483647,2147483647,2147483647,        0,        0,   0,   0,  23.1,  23.1,  23.1
6, 11224, 1,KE9ERI,     0.43, -87,   8, 3,   boost,  125.53,  99505.00,  152.61,   19.58,    0.00, 23.4, 8.04, 8.10, 3.87, 137.52,  -1.75,   0.03, -58.96,  29.60,   2.69,   0.13,  -0.26,   0.13,   6.00, 8.09, 0.00, 0.00, 8.04, 8.10, 1, 0,  0,2147483647.0000000,2147483647.0000000,2147483647.0,2147483647,2147483647,2147483647,2147483647,2147483647,2147483647,        0,        0,   0,   0,  23.1,  23.1,  23.1
6, 11224, 1,KE9ERI,     0.51, -86,  12, 3,   boost,  129.94,  99470.00,  155.57,   22.54,   13.89, 23.4, 8.04, 8.10, 3.87, 140.48,  -2.25,   1.27, -42.42,  40.28,   0.31,   0.11,  -0.24,   0.08,  10.00, 8.09, 0.00, 0.00, 8.04, 8.10, 1, 0,  0,2147483647.0000000,2147483647.0000000,2147483647.0,2147483647,2147483647,2147483647,2147483647,2147483647,2147483647,        0,        0,   0,   0,  23.1,  23.1,  23.1
6, 11224, 1,KE9ERI,     0.54, -84,   6, 3,   boost,  129.94,  99470.00,  155.57,   22.54,   13.89, 23.4, 8.04, 8.10, 3.87, 140.48,  -2.25,   1.27, -42.42,  40.28,   0.31,   0.11,  -0.24,   0.08,  10.00, 8.08, 0.00, 0.00, 8.04, 8.04, 1, 0,  0,2147483647.0000000,2147483647.0000000,2147483647.0,2147483647,2147483647,2147483647,2147483647,2147483647,2147483647,        0,        0,   0,   0,  23.1,  23.1,  23.1
6, 11224, 1,KE9ERI,     0.62, -82,   9, 3,   boost,  132.39,  99397.00,  161.74,   28.71,   27.97, 23.4, 8.04, 8.10, 3.87, 143.66,  -2.38,   1.65, -30.40,  37.05,  -0.55,   0.10,  -0.22,   0.03,  14.00, 8.08, 0.00, 0.00, 8.04, 8.04, 1, 0,  0,2147483647.0000000,2147483647.0000000,2147483647.0,2147483647,2147483647,2147483647,2147483647,2147483647,2147483647,        0,        0,   0,   0,  23.1,  23.1,  23.1
6, 11224, 1,KE9ERI,     0.65, -81,   8, 3,   boost,  132.39,  99397.00,  161.74,   28.71,   27.97, 23.4, 8.04, 8.10, 3.87, 143.66,  -2.38,   1.65, -30.40,  37.05,  -0.55,   0.10,  -0.22,   0.03,  14.00, 8.09, 0.00, 0.00, 8.04, 8.04, 1, 0,  0,2147483647.0000000,2147483647.0000000,2147483647.0,2147483647,2147483647,2147483647,2147483647,2147483647,2147483647,        0,        0,   0,   0,  23.1,  23.1,  23.1
6, 11224, 1,KE9ERI,     0.73, -79,   6, 3,   boost,  134.35,  99316.00,  168.59,   35.56,   42.06, 23.4, 8.04, 8.10, 3.87, 146.47,  -2.49,   4.36,  -3.30,  23.56,  -1.10,   0.08,  -0.21,   0.00,  17.00, 8.09, 0.00, 0.00, 8.04, 8.04, 1, 0,  0,2147483647.0000000,2147483647.0000000,2147483647.0,2147483647,2147483647,2147483647,2147483647,2147483647,2147483647,        0,        0,   0,   0,  23.1,  23.1,  23.1
6, 11224, 1,KE9ERI,     0.76, -79,   7, 3,   boost,  134.35,  99316.00,  168.59,   35.56,   42.06, 23.4, 8.04, 8.10, 3.87, 146.47,  -2.49,   4.36,  -3.30,  23.56,  -1.10,   0.08,  -0.21,   0.00,  17.00, 8.08, 0.00, 0.00, 8.04, 8.04, 1, 0,  0,2147483647.0000000,2147483647.0000000,2147483647.0,2147483647,2147483647,2147483647,2147483647,2147483647,2147483647,        0,        0,   0,   0,  23.1,  23.1,  23.1
6, 11224, 1,KE9ERI,     0.84, -79,   7, 3,   boost,  135.82,  99230.00,  175.87,   42.84,   56.14, 23.4, 8.04, 8.10, 3.87, 148.41,  -2.90,   7.36,   9.58,   3.23,  -1.40,   0.07,  -0.21,  -0.00,  19.00, 8.08, 0.00, 0.00, 8.04, 8.04, 1, 0,  0,2147483647.0000000,2147483647.0000000,2147483647.0,2147483647,2147483647,2147483647,2147483647,2147483647,2147483647,        0,        0,   0,   0,  23.1,  23.1,  23.1
6, 11224, 1,KE9ERI,     0.87, -78,  16, 3,   boost,  135.82,  99230.00,  175.87,   42.84,   56.14, 23.4, 8.04, 8.10, 3.87, 148.41,  -2.90,   7.36,   9.58,   3.23,  -1.40,   0.07,  -0.21,  -0.00,  19.00, 8.08, 0.00, 0.00, 8.10, 8.04, 1, 0,  0,2147483647.0000000,2147483647.0000000,2147483647.0,2147483647,2147483647,2147483647,2147483647,2147483647,2147483647,        0,        0,   0,   0,  23.1,  23.1,  23.1
6, 11224, 1,KE9ERI,     0.95, -78,   6, 3,   boost,  135.33,  99095.00,  187.31,   54.27,   70.23, 23.4, 8.04, 8.10, 3.87, 149.22,  -2.56,   5.29,   5.31, -11.66,   2.08,   0.08,  -0.22,   0.01,  18.00, 8.08, 0.00, 0.00, 8.10, 8.04, 1, 0,  0,2147483647.0000000,2147483647.0000000,2147483647.0,2147483647,2147483647,2147483647,2147483647,2147483647,2147483647,        0,        0,   0,   0,  23.1,  23.1,  23.1
6, 11224, 1,KE9ERI,     0.98, -78,   6, 3,   boost,  135.33,  99095.00,  187.31,   54.27,   70.23, 23.4, 8.10, 8.10, 3.87, 149.22,  -2.56,   5.29,   5.31, -11.66,   2.08,   0.08,  -0.22,   0.01,  18.00, 8.09, 0.00, 0.00, 8.04, 8.04, 1, 0,  0,2147483647.0000000,2147483647.0000000,2147483647.0,2147483647,2147483647,2147483647,2147483647,2147483647,2147483647,        0,        0,   0,   0,  23.1,  23.1,  23.1
6, 11224, 1,KE9ERI,     1.06, -77,   8, 3,   boost,  136.80,  98903.00,  203.59,   70.56,   84.49, 23.4, 8.10, 8.10, 3.87, 149.52,  -2.82,   1.74,  -4.15, -28.75,   2.14,   0.09,  -0.22,   0.02,  16.00, 8.09, 0.00, 0.00, 8.04, 8.04, 1, 0,  0,2147483647.0000000,2147483647.0000000,2147483647.0,2147483647,2147483647,2147483647,2147483647,2147483647,2147483647,        0,        0,   0,   0,  23.1,  23.1,  23.1
6, 11224, 1,KE9ERI,     1.09, -76,   7, 3,   boost,  136.80,  98903.00,  203.59,   70.56,   84.49, 23.4, 8.10, 8.10, 3.87, 149.52,  -2.82,   1.74,  -4.15, -28.75,   2.14,   0.09,  -0.22,   0.02,  16.00, 8.09, 0.00, 0.00, 8.10, 8.04, 1, 0,  0,2147483647.0000000,2147483647.0000000,2147483647.0,2147483647,2147483647,2147483647,2147483647,2147483647,2147483647,        0,        0,   0,   0,  23.1,  23.1,  23.1
6, 11224, 1,KE9ERI,     1.17, -78,   8, 3,   boost,  138.27,  98710.00,  219.99,   86.95,   99.10, 23.4, 8.10, 8.10, 3.87, 148.84,  -3.05,  -1.44, -30.64, -14.40,   3.42,   0.10,  -0.21,   0.04,  13.00, 8.09, 0.00, 0.00, 8.10, 8.04, 1, 0,  0,2147483647.0000000,2147483647.0000000,2147483647.0,2147483647,2147483647,2147483647,2147483647,2147483647,2147483647,        0,        0,   0,   0,  23.1,  23.1,  23.1
6, 11224, 1,KE9ERI,     1.20, -78,  11, 3,   boost,  138.27,  98710.00,  219.99,   86.95,   99.10, 23.4, 8.10, 8.10, 3.87, 148.84,  -3.05,  -1.44, -30.64, -14.40,   3.42,   0.10,  -0.21,   0.04,  13.00, 8.09, 0.00, 0.00, 8.04, 8.04, 1, 0,  0,2147483647.0000000,2147483647.0000000,2147483647.0,2147483647,2147483647,2147483647,2147483647,2147483647,2147483647,        0,        0,   0,   0,  23.1,  23.1,  23.1
6, 11224, 1,KE9ERI,     1.28, -79,   5, 3,   boost,  136.31,  98470.00,  240.41,  107.38,  113.79, 23.4, 8.10, 8.10, 3.87, 147.41,  -4.65,   0.37, -33.81,  17.09,   1.04,   0.10,  -0.20,   0.02,  13.00, 8.09, 0.00, 0.00, 8.04, 8.04, 1, 0,  0,2147483647.0000000,2147483647.0000000,2147483647.0,2147483647,2147483647,2147483647,2147483647,2147483647,2147483647,        0,        0,   0,   0,  23.1,  23.1,  23.1
6, 11224, 1,KE9ERI,     1.29, -90,  12, 3,   boost,  136.31,  98470.00,  240.41,  107.38,  113.79, 23.4, 8.10, 8.10, 3.87, 147.41,  -4.65,   0.37, -33.81,  17.09,   1.04,   0.10,  -0.20,   0.02,  13.00, 8.09, 0.00, 0.00, 8.04, 8.04, 1, 0,  0,2147483647.0000000,2147483647.0000000,2147483647.0,2147483647,2147483647,2147483647,2147483647,2147483647,2147483647,        0,        0,   0,   0,  23.1,  23.1,  23.1
6, 11224, 1,KE9ERI,     1.31, -79,   6, 3,   boost,  136.31,  98470.00,  240.41,  107.38,  113.79, 23.4, 8.04, 8.10, 3.87, 147.41,  -4.65,   0.37, -33.81,  17.09,   1.04,   0.10,  -0.20,   0.02,  13.00, 8.08, 0.00, 0.00, 8.04, 8.04, 1, 0,  0,2147483647.0000000,2147483647.0000000,2147483647.0,2147483647,2147483647,2147483647,2147483647,2147483647,2147483647,        0,        0,   0,   0,  23.1,  23.1,  23.1
6, 11224, 1,KE9ERI,     1.39, -80,   9, 3,   boost,  132.39,  98359.00,  249.88,  116.84,  128.09, 23.4, 8.04, 8.10, 3.87, 145.30,  -3.74,   2.20, -41.56,  19.96,  -5.13,   0.09,  -0.18,  -0.00,  15.00, 8.08, 0.00, 0.00, 8.04, 8.04, 1, 0,  0,2147483647.0000000,2147483647.0000000,2147483647.0,2147483647,2147483647,2147483647,2147483647,2147483647,2147483647,        0,        0,   0,   0,  23.1,  23.1,  23.1
6, 11224, 1,KE9ERI,     1.42, -82,   5, 3,   boost,  132.39,  98359.00,  249.88,  116.84,  128.09, 23.4, 8.04, 8.10, 3.87, 145.30,  -3.74,   2.20, -41.56,  19.96,  -5.13,   0.09,  -0.18,  -0.00,  15.00, 8.09, 0.00, 0.00, 8.10, 8.04, 1, 0,  0,2147483647.0000000,2147483647.0000000,2147483647.0,2147483647,2147483647,2147483647,2147483647,2147483647,2147483647,        0,        0,   0,   0,  23.1,  23.1,  23.1
6, 11224, 1,KE9ERI,     1.42, -83,   7, 3,   boost,  132.39,  98359.00,  249.88,  116.84,  128.09, 23.4, 8.04, 8.10, 3.87, 145.30,  -3.74,   2.20, -41.56,  19.96,  -5.13,   0.09,  -0.18,  -0.00,  15.00, 8.09, 0.00, 0.00, 8.10, 8.04, 1, 0,  0,2147483647.0000000,2147483647.0000000,2147483647.0,2147483647,2147483647,2147483647,2147483647,2147483647,2147483647,        0,        0,   0,   0,  23.1,  23.1,  23.1
6, 11224, 1,KE9ERI,     1.50, -84,   6, 3,   boost,  127.98,  98227.00,  261.14,  128.10,  141.82, 23.4, 8.04, 8.10, 3.87, 143.14,  -2.55,   5.58, -58.29,   2.75,  -3.66,   0.08,  -0.15,  -0.02,  17.00, 8.09, 0.00, 0.00, 8.10, 8.04, 1, 0,  0,2147483647.0000000,2147483647.0000000,2147483647.0,2147483647,2147483647,2147483647,2147483647,2147483647,2147483647,        0,        0,   0,   0,  23.1,  23.1,  23.1
6, 11224, 1,KE9ERI,     1.53, -87,   8, 3,   boost,  127.98,  98227.00,  261.14,  128.10,  141.82, 23.4, 8.04, 8.10, 3.87, 143.14,  -2.55,   5.58, -58.29,   2.75,  -3.66,   0.08,  -0.15,  -0.02,  17.00, 8.10, 0.00, 0.00, 8.04, 8.04, 1, 0,  0,2147483647.0000000,2147483647.0000000,2147483647.0,2147483647,2147483647,2147483647,2147483647,2147483647,2147483647,        0,        0,   0,   0,  23.1,  23.1,  23.1
6, 11224, 1,KE9ERI,     1.61, -87,   5, 3,   boost,  129.45,  98059.00,  275.49,  142.45,  155.35, 23.4, 8.04, 8.10, 3.87, 139.72,  -2.11,   3.30, -67.81, -11.35,   4.82,   0.09,  -0.12,  -0.02,  16.00, 8.10, 0.00, 0.00, 8.04, 8.04, 1, 0,  0,2147483647.0000000,2147483647.0000000,2147483647.0,2147483647,2147483647,2147483647,2147483647,2147483647,2147483647,        0,        0,   0,   0,  23.1,  23.1,  23.1
6, 11224, 1,KE9ERI,     1.64, -86,   7, 3,   boost,  129.45,  98059.00,  275.49,  142.45,  155.35, 23.4, 8.04, 8.10, 3.87, 139.72,  -2.11,   3.30, -67.81, -11.35,   4.82,   0.09,  -0.12,  -0.02,  16.00, 8.08, 0.00, 0.00, 8.04, 8.04, 1, 0,  0,2147483647.0000000,2147483647.0000000,2147483647.0,2147483647,2147483647,2147483647,2147483647,2147483647,2147483647,        0,        0,   0,   0,  23.1,  23.1,  23.1
6, 11224, 1,KE9ERI,     1.72, -84,   7, 3,   boost,  124.05,  97782.00,  299.19,  166.16,  168.74, 23.4, 8.04, 8.10, 3.87, 136.40,  -3.36,  -1.44, -57.31,  -4.94,   6.53,   0.09,  -0.09,  -0.02,  15.00, 8.08, 0.00, 0.00, 8.04, 8.04, 1, 0,  0,2147483647.0000000,2147483647.0000000,2147483647.0,2147483647,2147483647,2147483647,2147483647,2147483647,2147483647,        0,        0,   0,   0,  23.1,  23.1,  23.1
6, 11224, 1,KE9ERI,     1.75, -85,   6, 3,   boost,  124.05,  97782.00,  299.19,  166.16,  168.74, 23.4, 8.04, 8.10, 3.87, 136.40,  -3.36,  -1.44, -57.31,  -4.94,   6.53,   0.09,  -0.09,  -0.02,  15.00, 8.09, 0.00, 0.00, 8.04, 8.04, 1, 0,  0,2147483647.0000000,2147483647.0000000,2147483647.0,2147483647,2147483647,2147483647,2147483647,2147483647,2147483647,        0,        0,   0,   0,  23.1,  23.1,  23.1
6, 11224, 1,KE9ERI,     1.83, -85,   7, 3,   boost,  121.11,  97542.00,  319.78,  186.74,  181.73, 23.4, 8.04, 8.10, 3.87, 133.33,  -3.63,  -1.65, -28.87,   3.23,  -7.20,   0.09,  -0.07,  -0.02,  15.00, 8.09, 0.00, 0.00, 8.04, 8.04, 1, 0,  0,2147483647.0000000,2147483647.0000000,2147483647.0,2147483647,2147483647,2147483647,2147483647,2147483647,2147483647,        0,        0,   0,   0,  23.1,  23.1,  23.1
6, 11224, 1,KE9ERI,     1.86, -86,  11, 3,   boost,  121.11,  97542.00,  319.78,  186.74,  181.73, 23.4, 8.10, 8.10, 3.87, 133.33,  -3.63,  -1.65, -28.87,   3.23,  -7.20,   0.09,  -0.07,  -0.02,  15.00, 8.07, 0.00, 0.00, 8.04, 8.04, 1, 0,  0,2147483647.0000000,2147483647.0000000,2147483647.0,2147483647,2147483647,2147483647,2147483647,2147483647,2147483647,        0,        0,   0,   0,  23.1,  23.1,  23.1
6, 11224, 1,KE9ERI,     1.94, -86,   6, 3,   boost,  117.19,  97331.00,  337.90,  204.87,  194.35, 23.4, 8.10, 8.10, 3.87, 129.59,  -2.31,   1.11, -34.48,   7.14,  -3.60,   0.09,  -0.05,  -0.03,  15.00, 8.07, 0.00, 0.00, 8.04, 8.04, 1, 0,  0,2147483647.0000000,2147483647.0000000,2147483647.0,2147483647,2147483647,2147483647,2147483647,2147483647,2147483647,        0,        0,   0,   0,  23.1,  23.1,  23.1
6, 11224, 1,KE9ERI,     1.97, -87,  11, 3,   boost,  117.19,  97331.00,  337.90,  204.87,  194.35, 23.4, 8.04, 8.10, 3.87, 129.59,  -2.31,   1.11, -34.48,   7.14,  -3.60,   0.09,  -0.05,  -0.03,  15.00, 8.08, 0.00, 0.00, 8.04, 8.04, 1, 0,  0,2147483647.0000000,2147483647.0000000,2147483647.0,2147483647,2147483647,2147483647,2147483647,2147483647,2147483647,        0,        0,   0,   0,  23.1,  23.1,  23.1
6, 11224, 1,KE9ERI,     2.05, -86,   6, 3,   boost,  115.72,  97192.00,  349.87,  216.83,  206.66, 23.4, 8.04, 8.10, 3.87, 126.15,  -3.13,   2.05, -56.03,  -0.18,   5.43,   0.09,  -0.02,  -0.03,  16.00, 8.08, 0.00, 0.00, 8.04, 8.04, 1, 0,  0,2147483647.0000000,2147483647.0000000,2147483647.0,2147483647,2147483647,2147483647,2147483647,2147483647,2147483647,        0,        0,   0,   0,  23.1,  23.1,  23.1
6, 11224, 1,KE9ERI,     2.08, -86,  10, 3,   boost,  115.72,  97192.00,  349.87,  216.83,  206.66, 23.4, 8.04, 8.10, 3.87, 126.15,  -3.13,   2.05, -56.03,  -0.18,   5.43,   0.09,  -0.02,  -0.03,  16.00, 8.08, 0.00, 0.00, 8.04, 8.04, 1, 0,  0,2147483647.0000000,2147483647.0000000,2147483647.0,2147483647,2147483647,2147483647,2147483647,2147483647,2147483647,        0,        0,   0,   0,  23.1,  23.1,  23.1
6, 11224, 1,KE9ERI,     2.16, -85,   6, 3,   boost,  110.32,  97034.00,  363.48,  230.44,  218.60, 23.4, 8.04, 8.10, 3.87, 122.41,  -3.10,  -0.19, -52.67,  -3.05,  -0.12,   0.09,   0.00,  -0.02,  15.00, 8.08, 0.00, 0.00, 8.04, 8.04, 1, 0,  0,2147483647.0000000,2147483647.0000000,2147483647.0,2147483647,2147483647,2147483647,2147483647,2147483647,2147483647,        0,        0,   0,   0,  23.1,  23.1,  23.1
6, 11224, 1,KE9ERI,     2.19, -86,   7, 3,   boost,  110.32,  97034.00,  363.48,  230.44,  218.60, 23.4, 8.04, 8.10, 3.87, 122.41,  -3.10,  -0.19, -52.67,  -3.05,  -0.12,   0.09,   0.00,  -0.02,  15.00, 8.08, 0.00, 0.00, 8.04, 8.04, 1, 0,  0,2147483647.0000000,2147483647.0000000,2147483647.0,2147483647,2147483647,2147483647,2147483647,2147483647,2147483647,        0,        0,   0,   0,  23.1,  23.1,  23.1
6, 11224, 1,KE9ERI,     2.27, -87,   9, 3,   boost,  105.91,  96910.00,  374.17,  241.14,  230.02, 23.4, 8.04, 8.10, 3.87, 118.56,  -2.79,  -0.04, -56.70,   4.64,  -0.37,   0.09,   0.02,  -0.01,  16.00, 8.08, 0.00, 0.00, 8.04, 8.04, 1, 0,  0,2147483647.0000000,2147483647.0000000,2147483647.0,2147483647,2147483647,2147483647,2147483647,2147483647,2147483647,        0,        0,   0,   0,  23.1,  23.1,  23.1
6, 11224, 1,KE9ERI,     2.30, -87,  10, 3,   boost,  105.91,  96910.00,  374.17,  241.14,  230.02, 23.4, 8.04, 8.10, 3.87, 118.56,  -2.79,  -0.04, -56.70,   4.64,  -0.37,   0.09,   0.02,  -0.01,  16.00, 8.07, 0.00, 0.00, 8.04, 8.04, 1, 0,  0,2147483647.0000000,2147483647.0000000,2147483647.0,2147483647,2147483647,2147483647,2147483647,2147483647,2147483647,        0,        0,   0,   0,  23.1,  23.1,  23.1
6, 11224, 1,KE9ERI,     2.38, -88,   9, 3,   boost,  103.95,  96869.00,  377.71,  244.68,  241.07, 23.4, 8.04, 8.10, 3.87, 113.81,  -3.13,   1.06, -87.04,   4.64,   2.93,   0.09,   0.06,   0.01,  16.00, 8.07, 0.00, 0.00, 8.04, 8.04, 1, 0,  0,2147483647.0000000,2147483647.0000000,2147483647.0,2147483647,2147483647,2147483647,2147483647,2147483647,2147483647,        0,        0,   0,   0,  23.1,  23.1,  23.1
6, 11224, 1,KE9ERI,     2.41, -89,  16, 3,   boost,  103.95,  96869.00,  377.71,  244.68,  241.07, 23.4, 8.04, 8.10, 3.87, 113.81,  -3.13,   1.06, -87.04,   4.64,   2.93,   0.09,   0.06,   0.01,  16.00, 8.08, 0.00, 0.00, 8.04, 8.10, 1, 0,  0,2147483647.0000000,2147483647.0000000,2147483647.0,2147483647,2147483647,2147483647,2147483647,2147483647,2147483647,        0,        0,   0,   0,  23.1,  23.1,  23.1
6, 11224, 1,KE9ERI,     2.49, -91,  13, 3,   boost,   90.71,  96903.00,  374.78,  241.74,  251.32, 23.4, 8.04, 8.10, 3.87, 106.98,  -1.24,  -0.26,-107.42,   0.18,  -2.81,   0.09,   0.11,   0.04,  16.00, 8.08, 0.00, 0.00, 8.04, 8.10, 1, 0,  0,2147483647.0000000,2147483647.0000000,2147483647.0,2147483647,2147483647,2147483647,2147483647,2147483647,2147483647,        0,        0,   0,   0,  23.1,  23.1,  23.1
6, 11224, 1,KE9ERI,     2.52, -91,  10, 3,   boost,   90.71,  96903.00,  374.78,  241.74,  251.32, 23.4, 8.04, 8.10, 3.87, 106.98,  -1.24,  -0.26,-107.42,   0.18,  -2.81,   0.09,   0.11,   0.04,  16.00, 8.09, 0.00, 0.00, 8.04, 8.10, 1, 0,  0,2147483647.0000000,2147483647.0000000,2147483647.0,2147483647,2147483647,2147483647,2147483647,2147483647,2147483647,        0,        0,   0,   0,  23.1,  23.1,  23.1
6, 11224, 1,KE9ERI,     2.52, -88,   7, 3,   boost,   90.71,  96903.00,  374.78,  241.74,  251.32, 23.4, 8.04, 8.10, 3.87, 106.98,  -1.24,  -0.26,-107.42,   0.18,  -2.81,   0.09,   0.11,   0.04,  16.00, 8.09, 0.00, 0.00, 8.04, 8.10, 1, 0,  0,2147483647.0000000,2147483647.0000000,2147483647.0,2147483647,2147483647,2147483647,2147483647,2147483647,2147483647,        0,        0,   0,   0,  23.1,  23.1,  23.1
6, 11224, 1,KE9ERI,     2.60, -87,   7, 3,   boost,   35.79,  97204.00,  348.83,  215.80,  257.98, 23.4, 8.04, 8.10, 3.87,  64.40,  -2.98,  -4.91, -57.31,   0.06,   3.66,   0.09,   0.13,   0.08,  15.00, 8.09, 0.00, 0.00, 8.04, 8.10, 1, 0,  0,2147483647.0000000,2147483647.0000000,2147483647.0,2147483647,2147483647,2147483647,2147483647,2147483647,2147483647,        0,        0,   0,   0,  23.1,  23.1,  23.1
6, 11224, 1,KE9ERI,     2.63, -90,   6, 3,   boost,   35.79,  97204.00,  348.83,  215.80,  257.98, 23.4, 8.10, 8.10, 3.87,  64.40,  -2.98,  -4.91, -57.31,   0.06,   3.66,   0.09,   0.13,   0.08,  15.00, 8.09, 0.00, 0.00, 8.04, 8.04, 1, 0,  0,2147483647.0000000,2147483647.0000000,2147483647.0,2147483647,2147483647,2147483647,2147483647,2147483647,2147483647,        0,        0,   0,   0,  23.1,  23.1,  23.1
6, 11224, 1,KE9ERI,     2.71, -81,   8, 3,   boost,  -27.46,  97677.00,  308.19,  175.16,  258.39, 23.4, 8.10, 8.10, 3.87, -16.96,  -0.37,  -2.21, -33.08,  -9.03,  -5.25,   0.10,   0.15,   0.09,  16.00, 8.09, 0.00, 0.00, 8.04, 8.04, 1, 0,  0,2147483647.0000000,2147483647.0000000,2147483647.0,2147483647,2147483647,2147483647,2147483647,2147483647,2147483647,        0,        0,   0,   0,  23.1,  23.1,  23.1
6, 11224, 1,KE9ERI,     2.74, -83,   8, 3,   boost,  -27.46,  97677.00,  308.19,  175.16,  258.39, 23.4, 8.04, 8.10, 3.87, -16.96,  -0.37,  -2.21, -33.08,  -9.03,  -5.25,   0.10,   0.15,   0.09,  16.00, 8.07, 0.00, 0.00, 8.04, 8.04, 1, 0,  0,2147483647.0000000,2147483647.0000000,2147483647.0,2147483647,2147483647,2147483647,2147483647,2147483647,2147483647,        0,        0,   0,   0,  23.1,  23.1,  23.1
6, 11224, 1,KE9ERI,     2.82, -80,   9, 3,   boost,  -43.15,  97549.00,  319.17,  186.14,  254.62, 23.4, 8.04, 8.10, 3.87, -28.26,   1.10,  -3.16, -37.72, -17.03,   9.52,   0.10,   0.15,   0.11,  16.00, 8.07, 0.00, 0.00, 8.04, 8.04, 1, 0,  0,2147483647.0000000,2147483647.0000000,2147483647.0,2147483647,2147483647,2147483647,2147483647,2147483647,2147483647,        0,        0,   0,   0,  23.1,  23.1,  23.1
6, 11224, 1,KE9ERI,     2.85, -81,   5, 4,    fast,  -43.15,  97549.00,  319.17,  186.14,  254.62, 23.4, 8.10, 8.10, 3.87, -28.26,   1.10,  -3.16, -37.72, -17.03,   9.52,   0.10,   0.15,   0.11,  16.00, 8.09, 0.00, 0.00, 8.10, 8.04, 1, 0,  0,2147483647.0000000,2147483647.0000000,2147483647.0,2147483647,2147483647,2147483647,2147483647,2147483647,2147483647,        0,        0,   0,   0,  23.1,  23.1,  23.1
6, 11224, 1,KE9ERI,     2.93, -79,   5, 4,    fast,  -34.32,  96698.00,  392.49,  259.45,  250.48, 23.4, 8.10, 8.10, 3.87, -26.65,   1.03,  -6.25, -26.73,  -3.11,  -2.20,   0.10,   0.16,   0.13,  16.00, 8.09, 0.00, 0.00, 8.10, 8.04, 1, 0,  0,2147483647.0000000,2147483647.0000000,2147483647.0,2147483647,2147483647,2147483647,2147483647,2147483647,2147483647,        0,        0,   0,   0,  23.1,  23.1,  23.1
6, 11224, 1,KE9ERI,     2.96, -78,   6, 4,    fast,  -34.32,  96698.00,  392.49,  259.45,  250.48, 23.4, 8.04, 8.10, 3.87, -26.65,   1.03,  -6.25, -26.73,  -3.11,  -2.20,   0.10,   0.16,   0.13,  16.00, 8.09, 0.00, 0.00, 8.04, 8.04, 1, 0,  0,2147483647.0000000,2147483647.0000000,2147483647.0,2147483647,2147483647,2147483647,2147483647,2147483647,2147483647,        0,        0,   0,   0,  23.1,  23.1,  23.1
6, 11224, 1,KE9ERI,     3.04, -78,   6, 4,    fast,  -34.81,  95765.00,  473.46,  340.43,  246.78, 23.4, 8.04, 8.10, 3.87, -25.82,  -0.25,  -5.73, -44.74,   7.81,   7.14,   0.10,   0.17,   0.15,  16.00, 8.09, 0.00, 0.00, 8.04, 8.04, 1, 0,  0,2147483647.0000000,2147483647.0000000,2147483647.0,2147483647,2147483647,2147483647,2147483647,2147483647,2147483647,        0,        0,   0,   0,  23.1,  23.1,  23.1
6, 11224, 1,KE9ERI,     3.07, -78,   6, 4,    fast,  -34.81,  95765.00,  473.46,  340.43,  246.78, 23.4, 8.04, 8.10, 3.87, -25.82,  -0.25,  -5.73, -44.74,   7.81,   7.14,   0.10,   0.17,   0.15,  16.00, 8.08, 0.00, 0.00, 8.10, 8.04, 1, 0,  0,2147483647.0000000,2147483647.0000000,2147483647.0,2147483647,2147483647,2147483647,2147483647,2147483647,2147483647,        0,        0,   0,   0,  23.1,  23.1,  23.1
6, 11224, 1,KE9ERI,     3.15, -77,   6, 4,    fast,  -31.38,  95164.00,  525.96,  392.93,  243.24, 23.4, 8.04, 8.10, 3.87, -22.75,  -2.22,  -3.98, -43.15,   1.16,   2.14,   0.10,   0.17,   0.17,  16.00, 8.08, 0.00, 0.00, 8.10, 8.04, 1, 0,  0,2147483647.0000000,2147483647.0000000,2147483647.0,2147483647,2147483647,2147483647,2147483647,2147483647,2147483647,        0,        0,   0,   0,  23.1,  23.1,  23.1
6, 11224, 1,KE9ERI,     3.18, -78,   6, 4,    fast,  -31.38,  95164.00,  525.96,  392.93,  243.24, 23.4, 8.04, 8.10, 3.87, -22.75,  -2.22,  -3.98, -43.15,   1.16,   2.14,   0.10,   0.17,   0.17,  16.00, 8.07, 0.00, 0.00, 8.10, 8.04, 1, 0,  0,2147483647.0000000,2147483647.0000000,2147483647.0,2147483647,2147483647,2147483647,2147483647,2147483647,2147483647,        0,        0,   0,   0,  23.1,  23.1,  23.1
6, 11224, 1,KE9ERI,     3.26, -79,   7, 4,    fast,  -29.42,  94503.00,  584.02,  450.98,  239.98, 23.4, 8.04, 8.10, 3.87, -20.70,  -1.45,  -2.27, -76.90,   0.12,  -0.79,   0.10,   0.18,   0.21,  16.00, 8.07, 0.00, 0.00, 8.10, 8.04, 1, 0,  0,2147483647.0000000,2147483647.0000000,2147483647.0,2147483647,2147483647,2147483647,2147483647,2147483647,2147483647,        0,        0,   0,   0,  23.1,  23.1,  23.1
6, 11224, 1,KE9ERI,     3.29, -77,   6, 4,    fast,  -29.42,  94503.00,  584.02,  450.98,  239.98, 23.4, 8.10, 8.10, 3.87, -20.70,  -1.45,  -2.27, -76.90,   0.12,  -0.79,   0.10,   0.18,   0.21,  16.00, 8.09, 0.00, 0.00, 8.04, 8.10, 1, 0,  0,2147483647.0000000,2147483647.0000000,2147483647.0,2147483647,2147483647,2147483647,2147483647,2147483647,2147483647,        0,        0,   0,   0,  23.1,  23.1,  23.1
6, 11224, 1,KE9ERI,     3.29, -79,   8, 4,    fast,  -29.42,  94503.00,  584.02,  450.98,  239.98, 23.4, 8.10, 8.10, 3.87, -20.70,  -1.45,  -2.27, -76.90,   0.12,  -0.79,   0.10,   0.18,   0.21,  16.00, 8.09, 0.00, 0.00, 8.04, 8.10, 1, 0,  0,2147483647.0000000,2147483647.0000000,2147483647.0,2147483647,2147483647,2147483647,2147483647,2147483647,2147483647,        0,        0,   0,   0,  23.1,  23.1,  23.1
6, 11224, 1,KE9ERI,     3.37, -78,  10, 4,    fast,  -25.50,  93983.00,  629.92,  496.88,  237.04, 23.4, 8.10, 8.10, 3.87, -18.84,  -0.83,  -1.24,-127.26,   5.68,  -0.12,   0.10,   0.18,   0.27,  16.00, 8.09, 0.00, 0.00, 8.04, 8.10, 1, 0,  0,2147483647.0000000,2147483647.0000000,2147483647.0,2147483647,2147483647,2147483647,2147483647,2147483647,2147483647,        0,        0,   0,   0,  23.1,  23.1,  23.1
6, 11224, 1,KE9ERI,     3.40, -79,   9, 4,    fast,  -25.50,  93983.00,  629.92,  496.88,  237.04, 23.4, 8.10, 8.10, 3.87, -18.84,  -0.83,  -1.24,-127.26,   5.68,  -0.12,   0.10,   0.18,   0.27,  16.00, 8.09, 0.00, 0.00, 8.10, 8.04, 1, 0,  0,2147483647.0000000,2147483647.0000000,2147483647.0,2147483647,2147483647,2147483647,2147483647,2147483647,2147483647,        0,        0,   0,   0,  23.1,  23.1,  23.1
6, 11224, 1,KE9ERI,     3.48, -78,   6, 4,    fast,  -25.99,  93392.00,  682.34,  549.30,  234.27, 23.4, 8.10, 8.10, 3.87, -17.46,  -0.43,  -1.81,-157.78,  -0.31,   1.28,   0.11,   0.16,   0.35,  16.00, 8.09, 0.00, 0.00, 8.10, 8.04, 1, 0,  0,2147483647.0000000,2147483647.0000000,2147483647.0,2147483647,2147483647,2147483647,2147483647,2147483647,2147483647,        0,        0,   0,   0,  23.1,  23.1,  23.1
6, 11224, 1,KE9ERI,     3.51, -78,   5, 4,    fast,  -25.99,  93392.00,  682.34,  549.30,  234.27, 23.4, 8.04, 8.10, 3.87, -17.46,  -0.43,  -1.81,-157.78,  -0.31,   1.28,   0.11,   0.16,   0.35,  16.00, 8.09, 0.00, 0.00, 8.04, 8.04, 1, 0,  0,2147483647.0000000,2147483647.0000000,2147483647.0,2147483647,2147483647,2147483647,2147483647,2147483647,2147483647,        0,        0,   0,   0,  23.1,  23.1,  23.1
6, 11224, 1,KE9ERI,     3.59, -79,   8, 4,    fast,  -25.50,  92946.00,  722.08,  589.04,  231.51, 23.4, 8.04, 8.10, 3.87, -16.39,  -1.39,  -1.31,-167.48,  -2.26,   2.99,   0.11,   0.12,   0.44,  16.00, 8.09, 0.00, 0.00, 8.04, 8.04, 1, 0,  0,2147483647.0000000,2147483647.0000000,2147483647.0,2147483647,2147483647,2147483647,2147483647,2147483647,2147483647,        0,        0,   0,   0,  23.1,  23.1,  23.1
6, 11224, 1,KE9ERI,     3.62, -77,   5, 4,    fast,  -25.50,  92946.00,  722.08,  589.04,  231.51, 23.4, 8.04, 8.10, 3.87, -16.39,  -1.39,  -1.31,-167.48,  -2.26,   2.99,   0.11,   0.12,   0.44,  16.00, 8.09, 0.00, 0.00, 8.04, 8.04, 1, 0,  0,2147483647.0000000,2147483647.0000000,2147483647.0,2147483647,2147483647,2147483647,2147483647,2147483647,2147483647,        0,        0,   0,   0,  23.1,  23.1,  23.1
6, 11224, 1,KE9ERI,     3.70, -79,   7, 4,    fast,  -26.97,  92423.00,  768.87,  635.83,  228.69, 23.4, 8.04, 8.10, 3.87, -15.83,  -1.19,  -0.69,-168.09,   1.40,  -2.08,   0.11,   0.05,   0.51,  16.00, 8.09, 0.00, 0.00, 8.04, 8.04, 1, 0,  0,2147483647.0000000,2147483647.0000000,2147483647.0,2147483647,2147483647,2147483647,2147483647,2147483647,2147483647,        0,        0,   0,   0,  23.1,  23.1,  23.1
6, 11224, 1,KE9ERI,     3.73, -79,   5, 5,   coast,  -26.97,  92423.00,  768.87,  635.83,  228.69, 23.4, 8.04, 8.10, 3.87, -15.83,  -1.19,  -0.69,-168.09,   1.40,  -2.08,   0.11,   0.05,   0.51,  16.00, 8.08, 0.00, 0.00, 8.04, 8.04, 1, 0,  0,2147483647.0000000,2147483647.0000000,2147483647.0,2147483647,2147483647,2147483647,2147483647,2147483647,2147483647,        0,        0,   0,   0,  23.1,  23.1,  23.1
6, 11224, 1,KE9ERI,     3.81, -79,   7, 5,   coast,  -27.46,  91987.00,  808.04,  675.01,  225.78, 23.4, 8.04, 8.10, 3.87, -15.45,   0.78,  -1.17,-162.48,  -2.99,   5.49,   0.11,  -0.04,   0.56,  16.00, 8.08, 0.00, 0.00, 8.04, 8.04, 1, 0,  0,2147483647.0000000,2147483647.0000000,2147483647.0,2147483647,2147483647,2147483647,2147483647,2147483647,2147483647,        0,        0,   0,   0,  23.1,  23.1,  23.1
6, 11224, 1,KE9ERI,     3.84, -78,   7, 5,   coast,  -27.46,  91987.00,  808.04,  675.01,  225.78, 23.4, 8.10, 8.10, 3.87, -15.45,   0.78,  -1.17,-162.48,  -2.99,   5.49,   0.11,  -0.04,   0.56,  16.00, 8.09, 0.00, 0.00, 8.10, 8.04, 1, 0,  0,2147483647.0000000,2147483647.0000000,2147483647.0,2147483647,2147483647,2147483647,2147483647,2147483647,2147483647,        0,        0,   0,   0,  23.1,  23.1,  23.1
6, 11224, 1,KE9ERI,     3.92, -79,  14, 5,   coast,  -20.59,  91493.00,  852.61,  719.58,  223.19, 23.4, 8.10, 8.10, 3.87, -14.60,   0.01,  -0.80,-158.02,  -2.69,  -1.40,   0.11,  -0.12,   0.58,  16.00, 8.09, 0.00, 0.00, 8.10, 8.04, 1, 0,  0,2147483647.0000000,2147483647.0000000,2147483647.0,2147483647,2147483647,2147483647,2147483647,2147483647,2147483647,        0,        0,   0,   0,  23.1,  23.1,  23.1
6, 11224, 1,KE9ERI,     3.95, -79,   7, 5,   coast,  -20.59,  91493.00,  852.61,  719.58,  223.19, 23.4, 8.04, 8.10, 3.87, -14.60,   0.01,  -0.80,-158.02,  -2.69,  -1.40,   0.11,  -0.12,   0.58,  16.00, 8.07, 0.00, 0.00, 8.04, 8.04, 1, 0,  0,2147483647.0000000,2147483647.0000000,2147483647.0,2147483647,2147483647,2147483647,2147483647,2147483647,2147483647,        0,        0,   0,   0,  23.1,  23.1,  23.1
6, 11224, 1,KE9ERI,     4.03, -79,   7, 5,   coast,  -25.01,  91074.00,  890.57,  757.53,  220.74, 23.4, 8.04, 8.10, 3.87, -14.28,  -0.31,  -1.44,-171.02,  -2.32,   2.93,   0.11,  -0.21,   0.57,  16.00, 8.07, 0.00, 0.00, 8.04, 8.04, 1, 0,  0,2147483647.0000000,2147483647.0000000,2147483647.0,2147483647,2147483647,2147483647,2147483647,2147483647,2147483647,        0,        0,   0,   0,  23.1,  23.1,  23.1
6, 11224, 1,KE9ERI,     4.06, -79,   9, 5,   coast,  -25.01,  91074.00,  890.57,  757.53,  220.74, 23.4, 8.04, 8.10, 3.87, -14.28,  -0.31,  -1.44,-171.02,  -2.32,   2.93,   0.11,  -0.21,   0.57,  16.00, 8.08, 0.00, 0.00, 8.10, 8.04, 1, 0,  0,2147483647.0000000,2147483647.0000000,2147483647.0,2147483647,2147483647,2147483647,2147483647,2147483647,2147483647,        0,        0,   0,   0,  23.1,  23.1,  23.1
6, 11224, 1,KE9ERI,     4.14, -80,   6, 5,   coast,  -26.48,  90613.00,  932.49,  799.45,  217.98, 23.4, 8.04, 8.10, 3.87, -14.12,   0.58,  -1.43,-172.24,   3.78,   1.59,   0.11,  -0.28,   0.52,  16.00, 8.08, 0.00, 0.00, 8.10, 8.04, 1, 0,  0,2147483647.0000000,2147483647.0000000,2147483647.0,2147483647,2147483647,2147483647,2147483647,2147483647,2147483647,        0,        0,   0,   0,  23.1,  23.1,  23.1
6, 11224, 1,KE9ERI,     4.17, -80,   8, 5,   coast,  -26.48,  90613.00,  932.49,  799.45,  217.98, 23.4, 8.10, 8.10, 3.87, -14.12,   0.58,  -1.43,-172.24,   3.78,   1.59,   0.11,  -0.28,   0.52,  16.00, 8.09, 0.00, 0.00, 8.04, 8.04, 1, 0,  0,2147483647.0000000,2147483647.0000000,2147483647.0,2147483647,2147483647,2147483647,2147483647,2147483647,2147483647,        0,        0,   0,   0,  23.1,  23.1,  23.1
6, 11224, 1,KE9ERI,     4.25, -81,   7, 5,   coast,  -21.57,  90239.00,  966.63,  833.59,  215.39, 23.4, 8.10, 8.10, 3.87, -13.70,   0.35,  -2.35,-169.31,   0.61,  -2.26,   0.11,  -0.34,   0.45,  16.00, 8.09, 0.00, 0.00, 8.04, 8.04, 1, 0,  0,2147483647.0000000,2147483647.0000000,2147483647.0,2147483647,2147483647,2147483647,2147483647,2147483647,2147483647,        0,        0,   0,   0,  23.1,  23.1,  23.1
6, 11224, 1,KE9ERI,     4.28, -81,   7, 5,   coast,  -21.57,  90239.00,  966.63,  833.59,  215.39, 23.4, 8.04, 8.10, 3.87, -13.70,   0.35,  -2.35,-169.31,   0.61,  -2.26,   0.11,  -0.34,   0.45,  16.00, 8.08, 0.00, 0.00, 8.04, 8.04, 1, 0,  0,2147483647.0000000,2147483647.0000000,2147483647.0,2147483647,2147483647,2147483647,2147483647,2147483647,2147483647,        0,        0,   0,   0,  23.1,  23.1,  23.1
6, 11224, 1,KE9ERI,     4.29, -84,   9, 5,   coast,  -21.57,  90239.00,  966.63,  833.59,  215.39, 23.4, 8.04, 8.10, 3.87, -13.70,   0.35,  -2.35,-169.31,   0.61,  -2.26,   0.11,  -0.34,   0.45,  16.00, 8.08, 0.00, 0.00, 8.04, 8.04, 1, 0,  0,2147483647.0000000,2147483647.0000000,2147483647.0,2147483647,2147483647,2147483647,2147483647,2147483647,2147483647,        0,        0,   0,   0,  23.1,  23.1,  23.1
6, 11224, 1,KE9ERI,     4.36, -82,   9, 5,   coast,  -22.06,  89780.00, 1008.68,  875.64,  213.05, 23.4, 8.04, 8.10, 3.87, -13.25,   0.61,  -1.63,-162.23,  -1.53,   0.43,   0.11,  -0.36,   0.36,  16.00, 8.08, 0.00, 0.00, 8.04, 8.04, 1, 0,  0,2147483647.0000000,2147483647.0000000,2147483647.0,2147483647,2147483647,2147483647,2147483647,2147483647,2147483647,        0,        0,   0,   0,  23.1,  23.1,  23.1
6, 11224, 1,KE9ERI,     4.39, -81,   8, 5,   coast,  -22.06,  89780.00, 1008.68,  875.64,  213.05, 23.4, 8.04, 8.10, 3.87, -13.25,   0.61,  -1.63,-162.23,  -1.53,   0.43,   0.11,  -0.36,   0.36,  16.00, 8.08, 0.00, 0.00, 8.10, 8.04, 1, 0,  0,2147483647.0000000,2147483647.0000000,2147483647.0,2147483647,2147483647,2147483647,2147483647,2147483647,2147483647,        0,        0,   0,   0,  23.1,  23.1,  23.1
6, 11224, 1,KE9ERI,     4.47, -82,   7, 5,   coast,  -22.06,  89320.00, 1051.00,  917.96,  210.67, 23.4, 8.04, 8.10, 3.87, -13.22,  -0.40,   2.16,-156.43,   1.10,   0.37,   0.10,  -0.37,   0.28,  16.00, 8.08, 0.00, 0.00, 8.10, 8.04, 1, 0,  0,2147483647.0000000,2147483647.0000000,2147483647.0,2147483647,2147483647,2147483647,2147483647,2147483647,2147483647,        0,        0,   0,   0,  23.1,  23.1,  23.1
6, 11224, 1,KE9ERI,     4.50, -83,   5, 5,   coast,  -22.06,  89320.00, 1051.00,  917.96,  210.67, 23.4, 8.04, 8.10, 3.87, -13.22,  -0.40,   2.16,-156.43,   1.10,   0.37,   0.10,  -0.37,   0.28,  16.00, 8.09, 0.00, 0.00, 8.04, 8.04, 1, 0,  0,2147483647.0000000,2147483647.0000000,2147483647.0,2147483647,2147483647,2147483647,2147483647,2147483647,2147483647,        0,        0,   0,   0,  23.1,  23.1,  23.1
6, 11224, 1,KE9ERI,     4.58, -83,   6, 5,   coast,  -24.03,  88824.00, 1096.83,  963.79,  208.19, 23.4, 8.04, 8.10, 3.87, -13.24,   1.88,  -1.58,-200.07,   1.10,   2.38,   0.10,  -0.35,   0.18,  16.00, 8.09, 0.00, 0.00, 8.04, 8.04, 1, 0,  0,2147483647.0000000,2147483647.0000000,2147483647.0,2147483647,2147483647,2147483647,2147483647,2147483647,2147483647,        0,        0,   0,   0,  23.1,  23.1,  23.1
6, 11224, 1,KE9ERI,     4.61, -84,   8, 5,   coast,  -24.03,  88824.00, 1096.83,  963.79,  208.19, 23.4, 8.04, 8.10, 3.87, -13.24,   1.88,  -1.58,-200.07,   1.10,   2.38,   0.10,  -0.35,   0.18,  16.00, 8.08, 0.00, 0.00, 8.04, 8.04, 1, 0,  0,2147483647.0000000,2147483647.0000000,2147483647.0,2147483647,2147483647,2147483647,2147483647,2147483647,2147483647,        0,        0,   0,   0,  23.1,  23.1,  23.1
6, 11224, 1,KE9ERI,     4.69, -84,  13, 5,   coast,  -22.56,  88494.00, 1127.44,  994.40,  205.69, 23.4, 8.04, 8.10, 3.87, -12.57,  -0.01,   1.16,-220.95,   4.39,   0.00,   0.09,  -0.28,   0.07,  17.00, 8.08, 0.00, 0.00, 8.04, 8.04, 1, 0,  0,2147483647.0000000,2147483647.0000000,2147483647.0,2147483647,2147483647,2147483647,2147483647,2147483647,2147483647,        0,        0,   0,   0,  23.1,  23.1,  23.1
6, 11224, 1,KE9ERI,     4.72, -85,   8, 5,   coast,  -22.56,  88494.00, 1127.44,  994.40,  205.69, 23.4, 8.04, 8.10, 3.87, -12.57,  -0.01,   1.16,-220.95,   4.39,   0.00,   0.09,  -0.28,   0.07,  17.00, 8.09, 0.00, 0.00, 8.04, 8.04, 1, 0,  0,2147483647.0000000,2147483647.0000000,2147483647.0,2147483647,2147483647,2147483647,2147483647,2147483647,2147483647,        0,        0,   0,   0,  23.1,  23.1,  23.1
6, 11224, 1,KE9ERI,     4.72, -85,   9, 5,   coast,  -22.56,  88494.00, 1127.44,  994.40,  205.69, 23.4, 8.04, 8.10, 3.87, -12.57,  -0.01,   1.16,-220.95,   4.39,   0.00,   0.09,  -0.28,   0.07,  17.00, 8.09, 0.00, 0.00, 8.04, 8.04, 1, 0,  0,2147483647.0000000,2147483647.0000000,2147483647.0,2147483647,2147483647,2147483647,2147483647,2147483647,2147483647,        0,        0,   0,   0,  23.1,  23.1,  23.1
6, 11224, 1,KE9ERI,     4.80, -86,   9, 5,   coast,  -23.05,  88110.00, 1163.17, 1030.13,  203.25, 23.4, 8.04, 8.10, 3.87, -12.58,   1.51,  -0.36,-228.70,   0.79,   5.55,   0.09,  -0.17,  -0.01,  17.00, 8.09, 0.00, 0.00, 8.04, 8.04, 1, 0,  0,2147483647.0000000,2147483647.0000000,2147483647.0,2147483647,2147483647,2147483647,2147483647,2147483647,2147483647,        0,        0,   0,   0,  23.1,  23.1,  23.1
6, 11224, 1,KE9ERI,     4.83, -88,  14, 5,   coast,  -23.05,  88110.00, 1163.17, 1030.13,  203.25, 23.4, 8.04, 8.10, 3.87, -12.58,   1.51,  -0.36,-228.70,   0.79,   5.55,   0.09,  -0.17,  -0.01,  17.00, 8.08, 0.00, 0.00, 8.04, 8.04, 1, 0,  0,2147483647.0000000,2147483647.0000000,2147483647.0,2147483647,2147483647,2147483647,2147483647,2147483647,2147483647,        0,        0,   0,   0,  23.1,  23.1,  23.1
6, 11224, 1,KE9ERI,     4.94, -88,  12, 5,   coast,  -23.05,  88110.00, 1163.17, 1030.13,  203.25, 23.4, 8.04, 8.10, 3.87, -12.58,   1.51,  -0.36,-228.70,   0.79,   5.55,   0.09,  -0.17,  -0.01,  17.00, 8.10, 0.00, 0.00, 8.04, 8.04, 1, 0,  0,2147483647.0000000,2147483647.0000000,2147483647.0,2147483647,2147483647,2147483647,2147483647,2147483647,2147483647,        0,        0,   0,   0,  23.1,  23.1,  23.1
6, 11224, 1,KE9ERI,     5.02, -91,  14, 5,   coast,  -20.10,  87416.00, 1228.07, 1095.03,  198.61, 23.4, 8.04, 8.10, 3.87, -11.98,   0.32,  -0.99,-219.73,  -1.77,   0.73,   0.09,   0.06,   0.00,  17.00, 8.10, 0.00, 0.00, 8.04, 8.04, 1, 0,  0,2147483647.0000000,2147483647.0000000,2147483647.0,2147483647,2147483647,2147483647,2147483647,2147483647,2147483647,        0,        0,   0,   0,  23.1,  23.1,  23.1
6, 11224, 1,KE9ERI,     5.05, -91,   9, 5,   coast,  -20.10,  87416.00, 1228.07, 1095.03,  198.61, 23.4, 8.04, 8.10, 3.87, -11.98,   0.32,  -0.99,-219.73,  -1.77,   0.73,   0.09,   0.06,   0.00,  17.00, 8.09, 0.00, 0.00, 8.04, 8.10, 1, 0,  0,2147483647.0000000,2147483647.0000000,2147483647.0,2147483647,2147483647,2147483647,2147483647,2147483647,2147483647,        0,        0,   0,   0,  23.1,  23.1,  23.1
6, 11224, 1,KE9ERI,     5.13, -93,   8, 5,   coast,  -19.61,  87097.00, 1258.04, 1125.00,  196.48, 23.4, 8.04, 8.10, 3.87, -11.70,   0.47,  -1.95,-219.24,   2.50,  -3.91,   0.09,   0.14,   0.09,  17.00, 8.09, 0.00, 0.00, 8.04, 8.10, 1, 0,  0,2147483647.0000000,2147483647.0000000,2147483647.0,2147483647,2147483647,2147483647,2147483647,2147483647,2147483647,        0,        0,   0,   0,  23.1,  23.1,  23.1
6, 11224, 1,KE9ERI,     5.27, -97,  11, 5,   coast,  -19.61,  87097.00, 1258.04, 1125.00,  196.48, 23.4, 8.04, 8.10, 3.87, -11.70,   0.47,  -1.95,-219.24,   2.50,  -3.91,   0.09,   0.14,   0.09,  17.00, 8.09, 0.00, 0.00, 8.10, 8.04, 1, 0,  0,2147483647.0000000,2147483647.0000000,2147483647.0,2147483647,2147483647,2147483647,2147483647,2147483647,2147483647,        0,        0,   0,   0,  23.1,  23.1,  23.1
6, 11224, 1,KE9ERI,     5.29, -90,  12, 5,   coast,  -19.61,  87097.00, 1258.04, 1125.00,  196.48, 23.4, 8.04, 8.10, 3.87, -11.70,   0.47,  -1.95,-219.24,   2.50,  -3.91,   0.09,   0.14,   0.09,  17.00, 8.09, 0.00, 0.00, 8.10, 8.04, 1, 0,  0,2147483647.0000000,2147483647.0000000,2147483647.0,2147483647,2147483647,2147483647,2147483647,2147483647,2147483647,        0,        0,   0,   0,  23.1,  23.1,  23.1
6, 11224, 1,KE9ERI,     5.35, -94,  13, 5,   coast,  -21.08,  86439.00, 1320.14, 1187.10,  192.10, 23.4, 8.04, 8.10, 3.87, -11.25,   0.27,  -0.63,-219.12,   3.54,   1.40,   0.10,   0.17,   0.34,  17.00, 8.09, 0.00, 0.00, 8.10, 8.04, 1, 0,  0,2147483647.0000000,2147483647.0000000,2147483647.0,2147483647,2147483647,2147483647,2147483647,2147483647,2147483647,        0,        0,   0,   0,  23.1,  23.1,  23.1
6, 11224, 1,KE9ERI,     5.38, -93,   7, 5,   coast,  -21.08,  86439.00, 1320.14, 1187.10,  192.10, 23.4, 8.04, 8.10, 3.87, -11.25,   0.27,  -0.63,-219.12,   3.54,   1.40,   0.10,   0.17,   0.34,  17.00, 8.09, 0.00, 0.00, 8.04, 8.04, 1, 0,  0,2147483647.0000000,2147483647.0000000,2147483647.0,2147483647,2147483647,2147483647,2147483647,2147483647,2147483647,        0,        0,   0,   0,  23.1,  23.1,  23.1
6, 11224, 1,KE9ERI,     5.46, -92,  12, 5,   coast,  -24.03,  86095.00, 1352.76, 1219.72,  189.68, 23.4, 8.04, 8.10, 3.87, -10.84,  -1.34,  -2.79,-220.28,   1.89,  -6.41,   0.10,   0.11,   0.46,  17.00, 8.09, 0.00, 0.00, 8.04, 8.04, 1, 0,  0,2147483647.0000000,2147483647.0000000,2147483647.0,2147483647,2147483647,2147483647,2147483647,2147483647,2147483647,        0,        0,   0,   0,  23.1,  23.1,  23.1
6, 11224, 1,KE9ERI,     5.49, -91,  15, 5,   coast,  -24.03,  86095.00, 1352.76, 1219.72,  189.68, 23.4, 8.04, 8.10, 3.87, -10.84,  -1.34,  -2.79,-220.28,   1.89,  -6.41,   0.10,   0.11,   0.46,  17.00, 8.09, 0.00, 0.00, 8.04, 8.04, 1, 0,  0,2147483647.0000000,2147483647.0000000,2147483647.0,2147483647,2147483647,2147483647,2147483647,2147483647,2147483647,        0,        0,   0,   0,  23.1,  23.1,  23.1
6, 11224, 1,KE9ERI,     5.57, -90,  19, 5,   coast,  -21.08,  85814.00, 1379.48, 1246.45,  187.26, 23.4, 8.04, 8.10, 3.87, -10.96,  -0.35,  -3.10,-221.19,   2.32,   1.46,   0.11,   0.02,   0.54,  17.00, 8.09, 0.00, 0.00, 8.04, 8.04, 1, 0,  0,2147483647.0000000,2147483647.0000000,2147483647.0,2147483647,2147483647,2147483647,2147483647,2147483647,2147483647,        0,        0,   0,   0,  23.1,  23.1,  23.1
6, 11224, 1,KE9ERI,     5.60, -90,  11, 5,   coast,  -21.08,  85814.00, 1379.48, 1246.45,  187.26, 23.4, 8.04, 8.10, 3.87, -10.96,  -0.35,  -3.10,-221.19,   2.32,   1.46,   0.11,   0.02,   0.54,  17.00, 8.08, 0.00, 0.00, 8.04, 8.04, 1, 0,  0,2147483647.0000000,2147483647.0000000,2147483647.0,2147483647,2147483647,2147483647,2147483647,2147483647,2147483647,        0,        0,   0,   0,  23.1,  23.1,  23.1
6, 11224, 1,KE9ERI,     5.68, -90,   8, 5,   coast,  -17.65,  85484.00, 1410.96, 1277.92,  185.18, 23.4, 8.04, 8.10, 3.87, -10.60,   0.60,  -0.78,-213.68,   1.34,   1.46,   0.11,  -0.09,   0.58,  17.00, 8.08, 0.00, 0.00, 8.04, 8.04, 1, 0,  0,2147483647.0000000,2147483647.0000000,2147483647.0,2147483647,2147483647,2147483647,2147483647,2147483647,2147483647,        0,        0,   0,   0,  23.1,  23.1,  23.1
6, 11224, 1,KE9ERI,     5.71, -90,   7, 5,   coast,  -17.65,  85484.00, 1410.96, 1277.92,  185.18, 23.4, 8.10, 8.10, 3.87, -10.60,   0.60,  -0.78,-213.68,   1.34,   1.46,   0.11,  -0.09,   0.58,  17.00, 8.09, 0.00, 0.00, 8.10, 8.10, 1, 0,  0,2147483647.0000000,2147483647.0000000,2147483647.0,2147483647,2147483647,2147483647,2147483647,2147483647,2147483647,        0,        0,   0,   0,  23.1,  23.1,  23.1
6, 11224, 1,KE9ERI,     5.79, -91,   9, 5,   coast,  -18.14,  85209.00, 1437.26, 1304.23,  183.25, 23.4, 8.10, 8.10, 3.87, -10.53,   1.10,  -1.60,-212.16,   2.81,   4.21,   0.11,  -0.21,   0.57,  17.00, 8.09, 0.00, 0.00, 8.10, 8.10, 1, 0,  0,2147483647.0000000,2147483647.0000000,2147483647.0,2147483647,2147483647,2147483647,2147483647,2147483647,2147483647,        0,        0,   0,   0,  23.1,  23.1,  23.1
6, 11224, 1,KE9ERI,     5.82, -91,  11, 5,   coast,  -18.14,  85209.00, 1437.26, 1304.23,  183.25, 23.4, 8.04, 8.10, 3.87, -10.53,   1.10,  -1.60,-212.16,   2.81,   4.21,   0.11,  -0.21,   0.57,  17.00, 8.08, 0.00, 0.00, 8.04, 8.04, 1, 0,  0,2147483647.0000000,2147483647.0000000,2147483647.0,2147483647,2147483647,2147483647,2147483647,2147483647,2147483647,        0,        0,   0,   0,  23.1,  23.1,  23.1
6, 11224, 1,KE9ERI,     5.90, -91,   8, 5,   coast,  -20.10,  84898.00, 1467.09, 1334.06,  181.19, 23.4, 8.04, 8.10, 3.87, -10.54,   3.32,  -0.69,-201.17,  -1.40,  -4.82,   0.11,  -0.30,   0.52,  17.00, 8.08, 0.00, 0.00, 8.04, 8.04, 1, 0,  0,2147483647.0000000,2147483647.0000000,2147483647.0,2147483647,2147483647,2147483647,2147483647,2147483647,2147483647,        0,        0,   0,   0,  23.1,  23.1,  23.1
6, 11224, 1,KE9ERI,     5.93, -91,  17, 5,   coast,  -20.10,  84898.00, 1467.09, 1334.06,  181.19, 23.4, 8.04, 8.10, 3.87, -10.54,   3.32,  -0.69,-201.17,  -1.40,  -4.82,   0.11,  -0.30,   0.52,  17.00, 8.09, 0.00, 0.00, 8.04, 8.04, 1, 0,  0,2147483647.0000000,2147483647.0000000,2147483647.0,2147483647,2147483647,2147483647,2147483647,2147483647,2147483647,        0,        0,   0,   0,  23.1,  23.1,  23.1
6, 11224, 1,KE9ERI,     5.93, -91,  11, 5,   coast,  -20.10,  84898.00, 1467.09, 1334.06,  181.19, 23.4, 8.04, 8.10, 3.87, -10.54,   3.32,  -0.69,-201.17,  -1.40,  -4.82,   0.11,  -0.30,   0.52,  17.00, 8.09, 0.00, 0.00, 8.04, 8.04, 1, 0,  0,2147483647.0000000,2147483647.0000000,2147483647.0,2147483647,2147483647,2147483647,2147483647,2147483647,2147483647,        0,        0,   0,   0,  23.1,  23.1,  23.1
6, 11224, 1,KE9ERI,     6.01, -91,  10, 5,   coast,  -17.16,  84604.00, 1495.38, 1362.34,  179.18, 23.4, 8.04, 8.10, 3.87, -10.06,  -0.18,  -0.26,-201.29,  -7.20,   2.26,   0.10,  -0.36,   0.43,  17.00, 8.09, 0.00, 0.00, 8.04, 8.04, 1, 0,  0,2147483647.0000000,2147483647.0000000,2147483647.0,2147483647,2147483647,2147483647,2147483647,2147483647,2147483647,        0,        0,   0,   0,  23.1,  23.1,  23.1
6, 11224, 1,KE9ERI,     6.04, -91,  12, 5,   coast,  -17.16,  84604.00, 1495.38, 1362.34,  179.18, 23.4, 8.10, 8.10, 3.87, -10.06,  -0.18,  -0.26,-201.29,  -7.20,   2.26,   0.10,  -0.36,   0.43,  17.00, 8.08, 0.00, 0.00, 8.04, 8.04, 1, 0,  0,2147483647.0000000,2147483647.0000000,2147483647.0,2147483647,2147483647,2147483647,2147483647,2147483647,2147483647,        0,        0,   0,   0,  23.1,  23.1,  23.1
6, 11224, 1,KE9ERI,     6.15, -92,  16, 5,   coast,  -17.16,  84604.00, 1495.38, 1362.34,  179.18, 23.4, 8.04, 8.10, 3.87, -10.06,  -0.18,  -0.26,-201.29,  -7.20,   2.26,   0.10,  -0.36,   0.43,  17.00, 8.08, 0.00, 0.00, 8.04, 8.04, 1, 0,  0,2147483647.0000000,2147483647.0000000,2147483647.0,2147483647,2147483647,2147483647,2147483647,2147483647,2147483647,        0,        0,   0,   0,  23.1,  23.1,  23.1
6, 11224, 1,KE9ERI,     6.23, -90,   8, 5,   coast,  -18.63,  84092.00, 1544.82, 1411.78,  175.32, 23.4, 8.04, 8.10, 3.87,  -9.22,   0.11,  -0.58,-211.91,   7.75,  -8.18,   0.09,  -0.35,   0.19,  17.00, 8.08, 0.00, 0.00, 8.04, 8.04, 1, 0,  0,2147483647.0000000,2147483647.0000000,2147483647.0,2147483647,2147483647,2147483647,2147483647,2147483647,2147483647,        0,        0,   0,   0,  23.1,  23.1,  23.1
6, 11224, 1,KE9ERI,     6.26, -88,   7, 5,   coast,  -18.63,  84092.00, 1544.82, 1411.78,  175.32, 23.4, 8.10, 8.10, 3.87,  -9.22,   0.11,  -0.58,-211.91,   7.75,  -8.18,   0.09,  -0.35,   0.19,  17.00, 8.08, 0.00, 0.00, 8.04, 8.04, 1, 0,  0,2147483647.0000000,2147483647.0000000,2147483647.0,2147483647,2147483647,2147483647,2147483647,2147483647,2147483647,        0,        0,   0,   0,  23.1,  23.1,  23.1
6, 11224, 1,KE9ERI,     6.34, -87,   9, 5,   coast,  -19.61,  83816.00, 1571.57, 1438.54,  173.26, 23.4, 8.10, 8.10, 3.87,  -9.00,   0.34,  -2.97,-166.99,  -1.53,   0.18,   0.09,  -0.30,   0.09,  17.00, 8.08, 0.00, 0.00, 8.04, 8.04, 1, 0,  0,2147483647.0000000,2147483647.0000000,2147483647.0,2147483647,2147483647,2147483647,2147483647,2147483647,2147483647,        0,        0,   0,   0,  23.1,  23.1,  23.1
6, 11224, 1,KE9ERI,     6.37, -87,   8, 5,   coast,  -19.61,  83816.00, 1571.57, 1438.54,  173.26, 23.4, 8.04, 8.10, 3.87,  -9.00,   0.34,  -2.97,-166.99,  -1.53,   0.18,   0.09,  -0.30,   0.09,  17.00, 8.07, 0.00, 0.00, 8.10, 8.04, 1, 0,  0,2147483647.0000000,2147483647.0000000,2147483647.0,2147483647,2147483647,2147483647,2147483647,2147483647,2147483647,        0,        0,   0,   0,  23.1,  23.1,  23.1
6, 11224, 1,KE9ERI,     6.45, -85,   7, 5,   coast,  -19.12,  83562.00, 1596.26, 1463.22,  171.18, 23.4, 8.04, 8.10, 3.87,  -8.73,  -0.41,  -4.04,-140.38,   1.10,   6.29,   0.09,  -0.24,   0.03,  17.00, 8.07, 0.00, 0.00, 8.10, 8.04, 1, 0,  0,2147483647.0000000,2147483647.0000000,2147483647.0,2147483647,2147483647,2147483647,2147483647,2147483647,2147483647,        0,        0,   0,   0,  23.1,  23.1,  23.1
6, 11224, 1,KE9ERI,     6.48, -85,  10, 5,   coast,  -19.12,  83562.00, 1596.26, 1463.22,  171.18, 23.4, 8.04, 8.10, 3.87,  -8.73,  -0.41,  -4.04,-140.38,   1.10,   6.29,   0.09,  -0.24,   0.03,  17.00, 8.09, 0.00, 0.00, 8.04, 8.04, 1, 0,  0,2147483647.0000000,2147483647.0000000,2147483647.0,2147483647,2147483647,2147483647,2147483647,2147483647,2147483647,        0,        0,   0,   0,  23.1,  23.1,  23.1
6, 11224, 1,KE9ERI,     6.56, -87,   8, 5,   coast,  -17.16,  83262.00, 1625.49, 1492.45,  169.22, 23.4, 8.04, 8.10, 3.87,  -8.51,  -0.60,  -3.46,-120.54,  -0.06,   5.68,   0.09,  -0.18,  -0.01,  17.00, 8.09, 0.00, 0.00, 8.04, 8.04, 1, 0,  0,2147483647.0000000,2147483647.0000000,2147483647.0,2147483647,2147483647,2147483647,2147483647,2147483647,2147483647,        0,        0,   0,   0,  23.1,  23.1,  23.1
6, 11224, 1,KE9ERI,     6.59, -88,   8, 5,   coast,  -17.16,  83262.00, 1625.49, 1492.45,  169.22, 23.4, 8.04, 8.10, 3.87,  -8.51,  -0.60,  -3.46,-120.54,  -0.06,   5.68,   0.09,  -0.18,  -0.01,  17.00, 8.08, 0.00, 0.00, 8.10, 8.04, 1, 0,  0,2147483647.0000000,2147483647.0000000,2147483647.0,2147483647,2147483647,2147483647,2147483647,2147483647,2147483647,        0,        0,   0,   0,  23.1,  23.1,  23.1
6, 11224, 1,KE9ERI,     6.67, -90,   6, 5,   coast,  -17.16,  83027.00, 1648.45, 1515.41,  167.37, 23.4, 8.04, 8.10, 3.87,  -8.47,   0.32,  -4.70,-106.32,   0.92,  -0.98,   0.09,  -0.12,  -0.03,  17.00, 8.08, 0.00, 0.00, 8.10, 8.04, 1, 0,  0,2147483647.0000000,2147483647.0000000,2147483647.0,2147483647,2147483647,2147483647,2147483647,2147483647,2147483647,        0,        0,   0,   0,  23.1,  23.1,  23.1
6, 11224, 1,KE9ERI,     6.70, -91,  10, 5,   coast,  -17.16,  83027.00, 1648.45, 1515.41,  167.37, 23.4, 8.04, 8.10, 3.87,  -8.47,   0.32,  -4.70,-106.32,   0.92,  -0.98,   0.09,  -0.12,  -0.03,  17.00, 8.09, 0.00, 0.00, 8.04, 8.04, 1, 0,  0,2147483647.0000000,2147483647.0000000,2147483647.0,2147483647,2147483647,2147483647,2147483647,2147483647,2147483647,        0,        0,   0,   0,  23.1,  23.1,  23.1
6, 11224, 1,KE9ERI,     6.92, -96,  13, 5,   coast,  -17.16,  83027.00, 1648.45, 1515.41,  167.37, 23.4, 8.04, 8.10, 3.87,  -8.47,   0.32,  -4.70,-106.32,   0.92,  -0.98,   0.09,  -0.12,  -0.03,  17.00, 8.09, 0.00, 0.00, 8.04, 8.04, 1, 0,  0,2147483647.0000000,2147483647.0000000,2147483647.0,2147483647,2147483647,2147483647,2147483647,2147483647,2147483647,        0,        0,   0,   0,  23.1,  23.1,  23.1
6, 11224, 1,KE9ERI,     7.00, -91,  10, 5,   coast,  -18.63,  82250.00, 1724.74, 1591.70,  161.59, 23.4, 8.04, 8.10, 3.87,  -8.08,  -0.31,  -5.15,-105.04,  -0.37,   2.08,   0.09,   0.05,  -0.01,  18.00, 8.09, 0.00, 0.00, 8.04, 8.04, 1, 0,  0,2147483647.0000000,2147483647.0000000,2147483647.0,2147483647,2147483647,2147483647,2147483647,2147483647,2147483647,        0,        0,   0,   0,  23.1,  23.1,  23.1
6, 11224, 1,KE9ERI,     7.03, -89,   7, 5,   coast,  -18.63,  82250.00, 1724.74, 1591.70,  161.59, 23.4, 8.04, 8.10, 3.87,  -8.08,  -0.31,  -5.15,-105.04,  -0.37,   2.08,   0.09,   0.05,  -0.01,  18.00, 8.09, 0.00, 0.00, 8.04, 8.04, 1, 0,  0,2147483647.0000000,2147483647.0000000,2147483647.0,2147483647,2147483647,2147483647,2147483647,2147483647,2147483647,        0,        0,   0,   0,  23.1,  23.1,  23.1
6, 11224, 1,KE9ERI,     7.14, -87,   9, 5,   coast,  -18.63,  82250.00, 1724.74, 1591.70,  161.59, 23.4, 8.04, 8.10, 3.87,  -8.08,  -0.31,  -5.15,-105.04,  -0.37,   2.08,   0.09,   0.05,  -0.01,  18.00, 8.09, 0.00, 0.00, 8.04, 8.04, 1, 0,  0,2147483647.0000000,2147483647.0000000,2147483647.0,2147483647,2147483647,2147483647,2147483647,2147483647,2147483647,        0,        0,   0,   0,  23.1,  23.1,  23.1
6, 11224, 1,KE9ERI,     7.22, -87,  10, 5,   coast,  -18.14,  81741.00, 1775.03, 1641.99,  157.63, 23.4, 8.04, 8.10, 3.87,  -7.72,   0.93,  -4.40,-114.75,  -0.55,  -1.40,   0.09,   0.14,   0.06,  18.00, 8.09, 0.00, 0.00, 8.04, 8.04, 1, 0,  0,2147483647.0000000,2147483647.0000000,2147483647.0,2147483647,2147483647,2147483647,2147483647,2147483647,2147483647,        0,        0,   0,   0,  23.1,  23.1,  23.1
6, 11224, 1,KE9ERI,     7.25, -87,   8, 5,   coast,  -18.14,  81741.00, 1775.03, 1641.99,  157.63, 23.4, 8.04, 8.10, 3.87,  -7.72,   0.93,  -4.40,-114.75,  -0.55,  -1.40,   0.09,   0.14,   0.06,  18.00, 8.09, 0.00, 0.00, 8.10, 8.04, 1, 0,  0,2147483647.0000000,2147483647.0000000,2147483647.0,2147483647,2147483647,2147483647,2147483647,2147483647,2147483647,        0,        0,   0,   0,  23.1,  23.1,  23.1
6, 11224, 1,KE9ERI,     7.33, -87,   9, 5,   coast,  -19.12,  81497.00, 1799.23, 1666.19,  155.63, 23.4, 8.04, 8.10, 3.87,  -7.61,   0.26,  -3.38,-120.06,  -0.61,   0.24,   0.10,   0.17,   0.12,  18.00, 8.09, 0.00, 0.00, 8.10, 8.04, 1, 0,  0,2147483647.0000000,2147483647.0000000,2147483647.0,2147483647,2147483647,2147483647,2147483647,2147483647,2147483647,        0,        0,   0,   0,  23.1,  23.1,  23.1
6, 11224, 1,KE9ERI,     7.44, -93,  14, 5,   coast,  -17.65,  81248.00, 1823.98, 1690.95,  153.66, 23.4, 8.04, 8.10, 3.87,  -7.55,  -0.47,  -3.82,-102.72,  -2.56,  -0.85,   0.10,   0.18,   0.18,  18.00, 8.09, 0.00, 0.00, 8.10, 8.04, 1, 0,  0,2147483647.0000000,2147483647.0000000,2147483647.0,2147483647,2147483647,2147483647,2147483647,2147483647,2147483647,        0,        0,   0,   0,  23.1,  23.1,  23.1
6, 11224, 1,KE9ERI,     7.55, -97,  12, 5,   coast,  -15.69,  81023.00, 1846.40, 1713.37,  151.86, 23.4, 8.04, 8.10, 3.87,  -7.23,  -0.65,  -3.22, -94.85,  -1.95,  -6.16,   0.10,   0.19,   0.24,  19.00, 8.09, 0.00, 0.00, 8.10, 8.04, 1, 0,  0,2147483647.0000000,2147483647.0000000,2147483647.0,2147483647,2147483647,2147483647,2147483647,2147483647,2147483647,        0,        0,   0,   0,  23.1,  23.1,  23.1
6, 11224, 1,KE9ERI,     7.58, -93,  12, 5,   coast,  -15.69,  81023.00, 1846.40, 1713.37,  151.86, 23.4, 8.04, 8.10, 3.87,  -7.23,  -0.65,  -3.22, -94.85,  -1.95,  -6.16,   0.10,   0.19,   0.24,  19.00, 8.10, 0.00, 0.00, 8.04, 8.04, 1, 0,  0,2147483647.0000000,2147483647.0000000,2147483647.0,2147483647,2147483647,2147483647,2147483647,2147483647,2147483647,        0,        0,   0,   0,  23.1,  23.1,  23.1
6, 11224, 1,KE9ERI,     7.66, -93,  13, 5,   coast,  -17.65,  80736.00, 1875.08, 1742.04,  150.07, 23.4, 8.04, 8.10, 3.87,  -7.19,   0.44,  -3.18, -97.53,   0.92,  -2.99,   0.10,   0.19,   0.30,  19.00, 8.10, 0.00, 0.00, 8.04, 8.04, 1, 0,  0,2147483647.0000000,2147483647.0000000,2147483647.0,2147483647,2147483647,2147483647,2147483647,2147483647,2147483647,        0,        0,   0,   0,  23.1,  23.1,  23.1
6, 11224, 1,KE9ERI,     7.69, -93,   7, 5,   coast,  -17.65,  80736.00, 1875.08, 1742.04,  150.07, 23.4, 8.04, 8.10, 3.87,  -7.19,   0.44,  -3.18, -97.53,   0.92,  -2.99,   0.10,   0.19,   0.30,  19.00, 8.08, 0.00, 0.00, 8.04, 8.04, 1, 0,  0,2147483647.0000000,2147483647.0000000,2147483647.0,2147483647,2147483647,2147483647,2147483647,2147483647,2147483647,        0,        0,   0,   0,  23.1,  23.1,  23.1
6, 11224, 1,KE9ERI,     8.13,-103,  22, 5,   coast,  -17.65,  80736.00, 1875.08, 1742.04,  150.07, 23.4, 8.04, 8.10, 3.87,  -7.19,   0.44,  -3.18, -97.53,   0.92,  -2.99,   0.10,   0.19,   0.30,  19.00, 8.07, 0.00, 0.00, 8.04, 8.04, 1, 0,  0,2147483647.0000000,2147483647.0000000,2147483647.0,2147483647,2147483647,2147483647,2147483647,2147483647,2147483647,        0,        0,   0,   0,  23.1,  23.1,  23.1
6, 11224, 1,KE9ERI,     8.43, -95,  12, 5,   coast,  -15.20,  78962.00, 2054.17, 1921.13,  137.70, 23.4, 8.04, 8.10, 3.87,  -6.39,   0.73,  -0.56,-150.82,  -0.43,  -1.89,   0.10,  -0.19,   0.59,  19.00, 8.07, 0.00, 0.00, 8.04, 8.04, 1, 0,  0,2147483647.0000000,2147483647.0000000,2147483647.0,2147483647,2147483647,2147483647,2147483647,2147483647,2147483647,        0,        0,   0,   0,  23.1,  23.1,  23.1
6, 11224, 1,KE9ERI,     8.68, -94,  21, 5,   coast,  -15.20,  78962.00, 2054.17, 1921.13,  137.70, 23.4, 8.04, 8.10, 3.87,  -6.39,   0.73,  -0.56,-150.82,  -0.43,  -1.89,   0.10,  -0.19,   0.59,  19.00, 8.08, 0.00, 0.00, 8.04, 8.04, 1, 0,  0,2147483647.0000000,2147483647.0000000,2147483647.0,2147483647,2147483647,2147483647,2147483647,2147483647,2147483647,        0,        0,   0,   0,  23.1,  23.1,  23.1
6, 11224, 1,KE9ERI,     9.09, -95,   8, 5,   coast,  -16.18,  77651.00, 2188.62, 2055.59,  127.57, 23.4, 8.04, 8.10, 3.87,  -5.72,   1.26,  -2.05,-151.79,   0.61,  -0.61,   0.08,  -0.35,   0.14,  20.00, 8.08, 0.00, 0.00, 8.04, 8.04, 1, 0,  0,2147483647.0000000,2147483647.0000000,2147483647.0,2147483647,2147483647,2147483647,2147483647,2147483647,2147483647,        0,        0,   0,   0,  23.1,  23.1,  23.1
6, 11224, 1,KE9ERI,     9.12, -94,  17, 5,   coast,  -16.18,  77651.00, 2188.62, 2055.59,  127.57, 23.4, 8.04, 8.10, 3.87,  -5.72,   1.26,  -2.05,-151.79,   0.61,  -0.61,   0.08,  -0.35,   0.14,  20.00, 8.10, 0.00, 0.00, 8.04, 8.04, 1, 0,  0,2147483647.0000000,2147483647.0000000,2147483647.0,2147483647,2147483647,2147483647,2147483647,2147483647,2147483647,        0,        0,   0,   0,  23.1,  23.1,  23.1
6, 11224, 1,KE9ERI,     9.20, -91,   7, 5,   coast,  -12.75,  77430.00, 2211.47, 2078.44,  126.01, 23.4, 8.04, 8.10, 3.87,  -5.60,   1.31,  -2.51,-163.02,  -6.04,   2.26,   0.07,  -0.29,   0.06,  21.00, 8.10, 0.00, 0.00, 8.04, 8.04, 1, 0,  0,2147483647.0000000,2147483647.0000000,2147483647.0,2147483647,2147483647,2147483647,2147483647,2147483647,2147483647,        0,        0,   0,   0,  23.1,  23.1,  23.1
6, 11224, 1,KE9ERI,     9.23, -91,   9, 5,   coast,  -12.75,  77430.00, 2211.47, 2078.44,  126.01, 23.4, 8.10, 8.10, 3.87,  -5.60,   1.31,  -2.51,-163.02,  -6.04,   2.26,   0.07,  -0.29,   0.06,  21.00, 8.08, 0.00, 0.00, 8.04, 8.04, 1, 0,  0,2147483647.0000000,2147483647.0000000,2147483647.0,2147483647,2147483647,2147483647,2147483647,2147483647,2147483647,        0,        0,   0,   0,  23.1,  23.1,  23.1
6, 11224, 1,KE9ERI,     9.31, -91,  11, 5,   coast,  -13.73,  77285.00, 2226.49, 2093.45,  124.58, 23.4, 8.10, 8.10, 3.87,  -5.40,  -0.39,  -1.20,-159.73,   7.63,   1.77,   0.07,  -0.21,  -0.02,  21.00, 8.08, 0.00, 0.00, 8.04, 8.04, 1, 0,  0,2147483647.0000000,2147483647.0000000,2147483647.0,2147483647,2147483647,2147483647,2147483647,2147483647,2147483647,        0,        0,   0,   0,  23.1,  23.1,  23.1
6, 11224, 1,KE9ERI,     9.34, -91,   9, 5,   coast,  -13.73,  77285.00, 2226.49, 2093.45,  124.58, 23.4, 8.04, 8.10, 3.87,  -5.40,  -0.39,  -1.20,-159.73,   7.63,   1.77,   0.07,  -0.21,  -0.02,  21.00, 8.09, 0.00, 0.00, 8.10, 8.04, 1, 0,  0,2147483647.0000000,2147483647.0000000,2147483647.0,2147483647,2147483647,2147483647,2147483647,2147483647,2147483647,        0,        0,   0,   0,  23.1,  23.1,  23.1
6, 11224, 1,KE9ERI,     9.42, -91,  10, 5,   coast,  -16.18,  77050.00, 2250.88, 2117.84,  122.97, 23.4, 8.04, 8.10, 3.87,  -5.30,   1.08,  -1.23,-158.57,   7.14,  -5.07,   0.06,  -0.12,  -0.06,  22.00, 8.09, 0.00, 0.00, 8.10, 8.04, 1, 0,  0,2147483647.0000000,2147483647.0000000,2147483647.0,2147483647,2147483647,2147483647,2147483647,2147483647,2147483647,        0,        0,   0,   0,  23.1,  23.1,  23.1
6, 11224, 1,KE9ERI,     9.53, -93,  10, 5,   coast,  -17.16,  76862.00, 2270.43, 2137.40,  121.19, 23.4, 8.04, 8.10, 3.87,  -5.44,   1.87,  -1.48,-154.05,   4.76,   0.73,   0.06,  -0.03,  -0.06,  22.00, 8.09, 0.00, 0.00, 8.10, 8.04, 1, 0,  0,2147483647.0000000,2147483647.0000000,2147483647.0,2147483647,2147483647,2147483647,2147483647,2147483647,2147483647,        0,        0,   0,   0,  23.1,  23.1,  23.1
6, 11224, 1,KE9ERI,     9.64, -95,  17, 5,   coast,  -16.67,  76644.00, 2293.16, 2160.12,  119.39, 23.4, 8.04, 8.10, 3.87,  -5.30,   0.41,  -0.29,-148.19,   2.93,  -0.85,   0.06,   0.05,  -0.04,  23.00, 8.09, 0.00, 0.00, 8.10, 8.04, 1, 0,  0,2147483647.0000000,2147483647.0000000,2147483647.0,2147483647,2147483647,2147483647,2147483647,2147483647,2147483647,        0,        0,   0,   0,  23.1,  23.1,  23.1
6, 11224, 1,KE9ERI,     9.67, -95,  12, 5,   coast,  -16.67,  76644.00, 2293.16, 2160.12,  119.39, 23.4, 8.04, 8.10, 3.87,  -5.30,   0.41,  -0.29,-148.19,   2.93,  -0.85,   0.06,   0.05,  -0.04,  23.00, 8.09, 0.00, 0.00, 8.04, 8.04, 1, 0,  0,2147483647.0000000,2147483647.0000000,2147483647.0,2147483647,2147483647,2147483647,2147483647,2147483647,2147483647,        0,        0,   0,   0,  23.1,  23.1,  23.1
6, 11224, 1,KE9ERI,     9.75, -96,   9, 5,   coast,  -14.71,  76436.00, 2314.89, 2181.85,  117.72, 23.4, 8.04, 8.10, 3.87,  -5.21,   0.22,  -0.20,-137.70,   0.73,   0.98,   0.06,   0.12,   0.01,  23.00, 8.09, 0.00, 0.00, 8.04, 8.04, 1, 0,  0,2147483647.0000000,2147483647.0000000,2147483647.0,2147483647,2147483647,2147483647,2147483647,2147483647,2147483647,        0,        0,   0,   0,  23.1,  23.1,  23.1
6, 11224, 1,KE9ERI,    12.06, -94,   6, 5,   coast,  -13.73,  72902.00, 2691.61, 2558.57,   85.81, 23.4, 8.04, 8.10, 3.87,  -3.55,   0.50,   0.37,-104.55,   2.14,   0.12,   0.04,  -0.31,   0.03,  27.00, 8.09, 0.00, 0.00, 8.04, 8.04, 1, 0,  0,2147483647.0000000,2147483647.0000000,2147483647.0,2147483647,2147483647,2147483647,2147483647,2147483647,2147483647,        0,        0,   0,   0,  23.1,  23.1,  23.1
6, 11224, 1,KE9ERI,    12.09, -93,  16, 5,   coast,  -13.73,  72902.00, 2691.61, 2558.57,   85.81, 23.4, 8.04, 8.10, 3.87,  -3.55,   0.50,   0.37,-104.55,   2.14,   0.12,   0.04,  -0.31,   0.03,  27.00, 8.08, 0.00, 0.00, 8.04, 8.04, 1, 0,  0,2147483647.0000000,2147483647.0000000,2147483647.0,2147483647,2147483647,2147483647,2147483647,2147483647,2147483647,        0,        0,   0,   0,  23.1,  23.1,  23.1
6, 11224, 1,KE9ERI,    12.17, -97,   8, 5,   coast,  -12.26,  72766.00, 2706.40, 2573.36,   84.42, 23.4, 8.04, 8.10, 3.87,  -3.53,   0.47,  -0.01,-104.31,   3.36,   2.75,   0.04,  -0.26,  -0.02,  27.00, 8.08, 0.00, 0.00, 8.04, 8.04, 1, 0,  0,2147483647.0000000,2147483647.0000000,2147483647.0,2147483647,2147483647,2147483647,2147483647,2147483647,2147483647,        0,        0,   0,   0,  23.1,  23.1,  23.1
6, 11224, 1,KE9ERI,    12.20, -99,  11, 5,   coast,  -12.26,  72766.00, 2706.40, 2573.36,   84.42, 23.4, 8.04, 8.10, 3.87,  -3.53,   0.47,  -0.01,-104.31,   3.36,   2.75,   0.04,  -0.26,  -0.02,  27.00, 8.09, 0.00, 0.00, 8.04, 8.04, 1, 0,  0,2147483647.0000000,2147483647.0000000,2147483647.0,2147483647,2147483647,2147483647,2147483647,2147483647,2147483647,        0,        0,   0,   0,  23.1,  23.1,  23.1
6, 11224, 1,KE9ERI,    13.52, -93,   7, 5,   coast,  -12.26,  72766.00, 2706.40, 2573.36,   84.42, 23.4, 8.04, 8.10, 3.87,  -3.53,   0.47,  -0.01,-104.31,   3.36,   2.75,   0.04,  -0.26,  -0.02,  27.00, 8.09, 0.00, 0.00, 8.04, 8.04, 1, 0,  0,2147483647.0000000,2147483647.0000000,2147483647.0,2147483647,2147483647,2147483647,2147483647,2147483647,2147483647,        0,        0,   0,   0,  23.1,  23.1,  23.1
6, 11224, 1,KE9ERI,    13.60, -90,  10, 5,   coast,  -11.77,  70869.00, 2915.07, 2782.04,   67.63, 23.4, 8.04, 8.10, 3.87,  -2.90,   0.14,  -0.73, -79.53,  -0.98,  -1.16,   0.03,   0.25,   0.31,  31.00, 8.09, 0.00, 0.00, 8.04, 8.04, 1, 0,  0,2147483647.0000000,2147483647.0000000,2147483647.0,2147483647,2147483647,2147483647,2147483647,2147483647,2147483647,        0,        0,   0,   0,  23.1,  23.1,  23.1
6, 11224, 1,KE9ERI,    13.74, -98,  15, 5,   coast,  -11.77,  70869.00, 2915.07, 2782.04,   67.63, 23.4, 8.04, 8.10, 3.87,  -2.90,   0.14,  -0.73, -79.53,  -0.98,  -1.16,   0.03,   0.25,   0.31,  31.00, 8.09, 0.00, 0.00, 8.10, 8.10, 1, 0,  0,2147483647.0000000,2147483647.0000000,2147483647.0,2147483647,2147483647,2147483647,2147483647,2147483647,2147483647,        0,        0,   0,   0,  23.1,  23.1,  23.1
6, 11224, 1,KE9ERI,    13.82,-100,  17, 5,   coast,  -13.73,  70617.00, 2943.14, 2810.10,   64.92, 23.4, 8.04, 8.10, 3.87,  -2.82,   0.16,  -0.48, -78.31,  -0.37,  -2.50,   0.03,   0.22,   0.43,  31.00, 8.09, 0.00, 0.00, 8.10, 8.10, 1, 0,  0,2147483647.0000000,2147483647.0000000,2147483647.0,2147483647,2147483647,2147483647,2147483647,2147483647,2147483647,        0,        0,   0,   0,  23.1,  23.1,  23.1
6, 11224, 1,KE9ERI,    13.85, -99,   7, 5,   coast,  -13.73,  70617.00, 2943.14, 2810.10,   64.92, 23.4, 8.04, 8.10, 3.87,  -2.82,   0.16,  -0.48, -78.31,  -0.37,  -2.50,   0.03,   0.22,   0.43,  31.00, 8.09, 0.00, 0.00, 8.04, 8.04, 1, 0,  0,2147483647.0000000,2147483647.0000000,2147483647.0,2147483647,2147483647,2147483647,2147483647,2147483647,2147483647,        0,        0,   0,   0,  23.1,  23.1,  23.1
6, 11224, 1,KE9ERI,    13.93, -93,   9, 5,   coast,  -11.77,  70512.00, 2954.85, 2821.82,   63.57, 23.4, 8.04, 8.10, 3.87,  -2.77,   0.26,  -0.49, -77.76,  -1.04,  -2.44,   0.03,   0.19,   0.48,  32.00, 8.09, 0.00, 0.00, 8.04, 8.04, 1, 0,  0,2147483647.0000000,2147483647.0000000,2147483647.0,2147483647,2147483647,2147483647,2147483647,2147483647,2147483647,        0,        0,   0,   0,  23.1,  23.1,  23.1
6, 11224, 1,KE9ERI,    13.96, -93,  10, 5,   coast,  -11.77,  70512.00, 2954.85, 2821.82,   63.57, 23.4, 8.10, 8.10, 3.87,  -2.77,   0.26,  -0.49, -77.76,  -1.04,  -2.44,   0.03,   0.19,   0.48,  32.00, 8.09, 0.00, 0.00, 8.04, 8.04, 1, 0,  0,2147483647.0000000,2147483647.0000000,2147483647.0,2147483647,2147483647,2147483647,2147483647,2147483647,2147483647,        0,        0,   0,   0,  23.1,  23.1,  23.1
6, 11224, 1,KE9ERI,    14.04, -94,   6, 5,   coast,  -12.26,  70384.00, 2969.15, 2836.12,   62.28, 23.4, 8.10, 8.10, 3.87,  -2.74,   0.15,  -0.19, -78.31,  -0.98,  -1.89,   0.03,   0.15,   0.53,  32.00, 8.09, 0.00, 0.00, 8.04, 8.04, 1, 0,  0,2147483647.0000000,2147483647.0000000,2147483647.0,2147483647,2147483647,2147483647,2147483647,2147483647,2147483647,        0,        0,   0,   0,  23.1,  23.1,  23.1
6, 11224, 1,KE9ERI,    14.07, -94,  16, 5,   coast,  -12.26,  70384.00, 2969.15, 2836.12,   62.28, 23.4, 8.04, 8.10, 3.87,  -2.74,   0.15,  -0.19, -78.31,  -0.98,  -1.89,   0.03,   0.15,   0.53,  32.00, 8.09, 0.00, 0.00, 8.04, 8.04, 1, 0,  0,2147483647.0000000,2147483647.0000000,2147483647.0,2147483647,2147483647,2147483647,2147483647,2147483647,2147483647,        0,        0,   0,   0,  23.1,  23.1,  23.1
6, 11224, 1,KE9ERI,    14.15, -94,   8, 5,   coast,  -13.24,  70274.00, 2981.46, 2848.42,   60.93, 23.4, 8.04, 8.10, 3.87,  -2.65,   0.22,  -0.32, -79.16,  -1.59,  -0.73,   0.03,   0.11,   0.57,  32.00, 8.09, 0.00, 0.00, 8.04, 8.04, 1, 0,  0,2147483647.0000000,2147483647.0000000,2147483647.0,2147483647,2147483647,2147483647,2147483647,2147483647,2147483647,        0,        0,   0,   0,  23.1,  23.1,  23.1
6, 11224, 1,KE9ERI,    14.18, -94,   9, 5,   coast,  -13.24,  70274.00, 2981.46, 2848.42,   60.93, 23.4, 8.04, 8.10, 3.87,  -2.65,   0.22,  -0.32, -79.16,  -1.59,  -0.73,   0.03,   0.11,   0.57,  32.00, 8.09, 0.00, 0.00, 8.04, 8.04, 1, 0,  0,2147483647.0000000,2147483647.0000000,2147483647.0,2147483647,2147483647,2147483647,2147483647,2147483647,2147483647,        0,        0,   0,   0,  23.1,  23.1,  23.1
6, 11224, 1,KE9ERI,    14.26, -91,   8, 5,   coast,  -12.75,  70140.00, 2996.47, 2863.44,   59.55, 23.4, 8.04, 8.10, 3.87,  -2.57,   0.06,  -0.47, -78.19,  -1.83,  -0.18,   0.03,   0.07,   0.61,  32.00, 8.09, 0.00, 0.00, 8.04, 8.04, 1, 0,  0,2147483647.0000000,2147483647.0000000,2147483647.0,2147483647,2147483647,2147483647,2147483647,2147483647,2147483647,        0,        0,   0,   0,  23.1,  23.1,  23.1
6, 11224, 1,KE9ERI,    14.29, -92,   9, 5,   coast,  -12.75,  70140.00, 2996.47, 2863.44,   59.55, 23.4, 8.04, 8.10, 3.87,  -2.57,   0.06,  -0.47, -78.19,  -1.83,  -0.18,   0.03,   0.07,   0.61,  32.00, 8.09, 0.00, 0.00, 8.04, 8.04, 1, 0,  0,2147483647.0000000,2147483647.0000000,2147483647.0,2147483647,2147483647,2147483647,2147483647,2147483647,2147483647,        0,        0,   0,   0,  23.1,  23.1,  23.1
6, 11224, 1,KE9ERI,    14.37, -92,  12, 5,   coast,  -11.28,  70037.00, 3008.03, 2874.99,   58.27, 23.4, 8.04, 8.10, 3.87,  -2.58,   0.27,  -0.48, -77.88,  -1.53,   0.61,   0.03,   0.01,   0.65,  32.00, 8.09, 0.00, 0.00, 8.04, 8.04, 1, 0,  0,2147483647.0000000,2147483647.0000000,2147483647.0,2147483647,2147483647,2147483647,2147483647,2147483647,2147483647,        0,        0,   0,   0,  23.1,  23.1,  23.1
6, 11224, 1,KE9ERI,    14.40, -91,   7, 5,   coast,  -11.28,  70037.00, 3008.03, 2874.99,   58.27, 23.4, 8.04, 8.10, 3.87,  -2.58,   0.27,  -0.48, -77.88,  -1.53,   0.61,   0.03,   0.01,   0.65,  32.00, 8.08, 0.00, 0.00, 8.10, 8.04, 1, 0,  0,2147483647.0000000,2147483647.0000000,2147483647.0,2147483647,2147483647,2147483647,2147483647,2147483647,2147483647,        0,        0,   0,   0,  23.1,  23.1,  23.1
6, 11224, 1,KE9ERI,    14.48, -90,   8, 5,   coast,  -12.26,  69904.00, 3022.97, 2889.93,   57.01, 23.4, 8.04, 8.10, 3.87,  -2.46,   0.30,  -0.38, -77.58,  -1.59,   0.85,   0.03,  -0.04,   0.67,  33.00, 8.08, 0.00, 0.00, 8.10, 8.04, 1, 0,  0,2147483647.0000000,2147483647.0000000,2147483647.0,2147483647,2147483647,2147483647,2147483647,2147483647,2147483647,        0,        0,   0,   0,  23.1,  23.1,  23.1
6, 11224, 1,KE9ERI,    14.51, -92,  15, 5,   coast,  -12.26,  69904.00, 3022.97, 2889.93,   57.01, 23.4, 8.04, 8.10, 3.87,  -2.46,   0.30,  -0.38, -77.58,  -1.59,   0.85,   0.03,  -0.04,   0.67,  33.00, 8.09, 0.00, 0.00, 8.04, 8.04, 1, 0,  0,2147483647.0000000,2147483647.0000000,2147483647.0,2147483647,2147483647,2147483647,2147483647,2147483647,2147483647,        0,        0,   0,   0,  23.1,  23.1,  23.1
6, 11224, 1,KE9ERI,    14.59, -95,   7, 5,   coast,  -12.75,  69799.00, 3034.78, 2901.75,   55.68, 23.4, 8.04, 8.10, 3.87,  -2.48,   0.16,  -0.26, -78.31,  -1.46,   2.01,   0.02,  -0.09,   0.68,  33.00, 8.09, 0.00, 0.00, 8.04, 8.04, 1, 0,  0,2147483647.0000000,2147483647.0000000,2147483647.0,2147483647,2147483647,2147483647,2147483647,2147483647,2147483647,        0,        0,   0,   0,  23.1,  23.1,  23.1
6, 11224, 1,KE9ERI,    14.62, -97,  12, 5,   coast,  -12.75,  69799.00, 3034.78, 2901.75,   55.68, 23.4, 8.10, 8.10, 3.87,  -2.48,   0.16,  -0.26, -78.31,  -1.46,   2.01,   0.02,  -0.09,   0.68,  33.00, 8.08, 0.00, 0.00, 8.04, 8.04, 1, 0,  0,2147483647.0000000,2147483647.0000000,2147483647.0,2147483647,2147483647,2147483647,2147483647,2147483647,2147483647,        0,        0,   0,   0,  23.1,  23.1,  23.1
6, 11224, 1,KE9ERI,    14.62, -96,  11, 5,   coast,  -12.75,  69799.00, 3034.78, 2901.75,   55.68, 23.4, 8.10, 8.10, 3.87,  -2.48,   0.16,  -0.26, -78.31,  -1.46,   2.01,   0.02,  -0.09,   0.68,  33.00, 8.08, 0.00, 0.00, 8.04, 8.04, 1, 0,  0,2147483647.0000000,2147483647.0000000,2147483647.0,2147483647,2147483647,2147483647,2147483647,2147483647,2147483647,        0,        0,   0,   0,  23.1,  23.1,  23.1
6, 11224, 1,KE9ERI,    14.70, -96,  13, 5,   coast,  -11.28,  69676.00, 3048.64, 2915.60,   54.40, 23.4, 8.10, 8.10, 3.87,  -2.51,   0.25,  -0.60, -77.88,  -1.10,   2.32,   0.02,  -0.15,   0.69,  33.00, 8.08, 0.00, 0.00, 8.04, 8.04, 1, 0,  0,2147483647.0000000,2147483647.0000000,2147483647.0,2147483647,2147483647,2147483647,2147483647,2147483647,2147483647,        0,        0,   0,   0,  23.1,  23.1,  23.1
6, 11224, 1,KE9ERI,    14.73, -96,  14, 5,   coast,  -11.28,  69676.00, 3048.64, 2915.60,   54.40, 23.4, 8.10, 8.10, 3.88,  -2.51,   0.25,  -0.60, -77.88,  -1.10,   2.32,   0.02,  -0.15,   0.69,  33.00, 8.08, 0.00, 0.00, 8.04, 8.04, 1, 0,  0,2147483647.0000000,2147483647.0000000,2147483647.0,2147483647,2147483647,2147483647,2147483647,2147483647,2147483647,        0,        0,   0,   0,  23.1,  23.1,  23.1
6, 11224, 1,KE9ERI,    14.95, -93,  10, 5,   coast,  -11.28,  69676.00, 3048.64, 2915.60,   54.40, 23.4, 8.10, 8.10, 3.87,  -2.51,   0.25,  -0.60, -77.88,  -1.10,   2.32,   0.02,  -0.15,   0.69,  33.00, 8.09, 0.00, 0.00, 8.10, 8.04, 1, 0,  0,2147483647.0000000,2147483647.0000000,2147483647.0,2147483647,2147483647,2147483647,2147483647,2147483647,2147483647,        0,        0,   0,   0,  23.1,  23.1,  23.1
6, 11224, 1,KE9ERI,    15.06, -99,  10, 5,   coast,  -11.28,  69676.00, 3048.64, 2915.60,   54.40, 23.4, 8.04, 8.10, 3.87,  -2.51,   0.25,  -0.60, -77.88,  -1.10,   2.32,   0.02,  -0.15,   0.69,  33.00, 8.10, 0.00, 0.00, 8.04, 8.04, 1, 0,  0,2147483647.0000000,2147483647.0000000,2147483647.0,2147483647,2147483647,2147483647,2147483647,2147483647,2147483647,        0,        0,   0,   0,  23.1,  23.1,  23.1
6, 11224, 1,KE9ERI,    15.17,-100,  15, 5,   coast,  -11.28,  69676.00, 3048.64, 2915.60,   54.40, 23.4, 8.04, 8.10, 3.87,  -2.51,   0.25,  -0.60, -77.88,  -1.10,   2.32,   0.02,  -0.15,   0.69,  33.00, 8.09, 0.00, 0.00, 8.04, 8.04, 1, 0,  0,2147483647.0000000,2147483647.0000000,2147483647.0,2147483647,2147483647,2147483647,2147483647,2147483647,2147483647,        0,        0,   0,   0,  23.1,  23.1,  23.1
6, 11224, 1,KE9ERI,    15.25,-100,  15, 5,   coast,  -12.26,  69099.00, 3113.90, 2980.87,   48.11, 23.4, 8.04, 8.10, 3.87,  -2.26,   0.34,  -0.59, -74.89,  -1.95,   2.75,   0.01,  -0.38,   0.58,  34.00, 8.09, 0.00, 0.00, 8.04, 8.04, 1, 0,  0,2147483647.0000000,2147483647.0000000,2147483647.0,2147483647,2147483647,2147483647,2147483647,2147483647,2147483647,        0,        0,   0,   0,  23.1,  23.1,  23.1
6, 11224, 1,KE9ERI,    15.36, -97,  12, 5,   coast,  -10.30,  68986.00, 3126.73, 2993.70,   46.89, 23.4, 8.04, 8.10, 3.87,  -2.21,   0.27,  -0.75, -78.13,  -1.04,   3.36,   0.01,  -0.42,   0.54,  35.00, 8.09, 0.00, 0.00, 8.04, 8.04, 1, 0,  0,2147483647.0000000,2147483647.0000000,2147483647.0,2147483647,2147483647,2147483647,2147483647,2147483647,2147483647,        0,        0,   0,   0,  23.1,  23.1,  23.1
6, 11224, 1,KE9ERI,    15.47, -96,   8, 5,   coast,  -11.28,  68889.00, 3137.76, 3004.73,   45.73, 23.4, 8.04, 8.10, 3.87,  -2.20,   0.17,  -0.83, -79.90,   0.85,   2.87,   0.00,  -0.44,   0.48,  35.00, 8.09, 0.00, 0.00, 8.04, 8.04, 1, 0,  0,2147483647.0000000,2147483647.0000000,2147483647.0,2147483647,2147483647,2147483647,2147483647,2147483647,2147483647,        0,        0,   0,   0,  23.1,  23.1,  23.1
6, 11224, 1,KE9ERI,    15.58, -94,  10, 5,   coast,  -12.26,  68789.00, 3149.15, 3016.11,   44.47, 23.4, 8.04, 8.10, 3.87,  -2.23,   0.51,  -0.85, -81.85,   3.11,   4.15,  -0.00,  -0.47,   0.42,  35.00, 8.09, 0.00, 0.00, 8.04, 8.04, 1, 0,  0,2147483647.0000000,2147483647.0000000,2147483647.0,2147483647,2147483647,2147483647,2147483647,2147483647,2147483647,        0,        0,   0,   0,  23.1,  23.1,  23.1
6, 11224, 1,KE9ERI,    15.61, -94,   9, 5,   coast,  -12.26,  68789.00, 3149.15, 3016.11,   44.47, 23.4, 8.04, 8.10, 3.87,  -2.23,   0.51,  -0.85, -81.85,   3.11,   4.15,  -0.00,  -0.47,   0.42,  35.00, 8.08, 0.00, 0.00, 8.04, 8.04, 1, 0,  0,2147483647.0000000,2147483647.0000000,2147483647.0,2147483647,2147483647,2147483647,2147483647,2147483647,2147483647,        0,        0,   0,   0,  23.1,  23.1,  23.1
6, 11224, 1,KE9ERI,    16.02, -97,  12, 5,   coast,  -11.77,  68386.00, 3195.16, 3062.12,   39.37, 23.4, 8.04, 8.10, 3.87,  -2.03,   0.30,  -0.47, -80.44,   1.65,   2.81,  -0.02,  -0.45,   0.16,  37.00, 8.08, 0.00, 0.00, 8.04, 8.04, 1, 0,  0,2147483647.0000000,2147483647.0000000,2147483647.0,2147483647,2147483647,2147483647,2147483647,2147483647,2147483647,        0,        0,   0,   0,  23.1,  23.1,  23.1
6, 11224, 1,KE9ERI,    16.27, -97,  18, 5,   coast,  -11.77,  68386.00, 3195.16, 3062.12,   39.37, 23.4, 8.10, 8.10, 3.87,  -2.03,   0.30,  -0.47, -80.44,   1.65,   2.81,  -0.02,  -0.45,   0.16,  37.00, 8.09, 0.00, 0.00, 8.04, 8.04, 1, 0,  0,2147483647.0000000,2147483647.0000000,2147483647.0,2147483647,2147483647,2147483647,2147483647,2147483647,2147483647,        0,        0,   0,   0,  23.1,  23.1,  23.1
6, 11224, 1,KE9ERI,    16.29, -96,  14, 5,   coast,  -11.77,  68386.00, 3195.16, 3062.12,   39.37, 23.4, 8.10, 8.10, 3.87,  -2.03,   0.30,  -0.47, -80.44,   1.65,   2.81,  -0.02,  -0.45,   0.16,  37.00, 8.09, 0.00, 0.00, 8.04, 8.04, 1, 0,  0,2147483647.0000000,2147483647.0000000,2147483647.0,2147483647,2147483647,2147483647,2147483647,2147483647,2147483647,        0,        0,   0,   0,  23.1,  23.1,  23.1
6, 11224, 1,KE9ERI,    16.35, -97,  18, 5,   coast,  -11.77,  68124.00, 3225.19, 3092.16,   35.62, 23.4, 8.10, 8.10, 3.87,  -1.93,   0.11,  -0.80, -79.83,   2.38,   2.38,  -0.03,  -0.35,  -0.01,  38.00, 8.09, 0.00, 0.00, 8.04, 8.04, 1, 0,  0,2147483647.0000000,2147483647.0000000,2147483647.0,2147483647,2147483647,2147483647,2147483647,2147483647,2147483647,        0,        0,   0,   0,  23.1,  23.1,  23.1
6, 11224, 1,KE9ERI,    16.49, -97,  18, 5,   coast,  -11.77,  68124.00, 3225.19, 3092.16,   35.62, 23.4, 8.04, 8.10, 3.87,  -1.93,   0.11,  -0.80, -79.83,   2.38,   2.38,  -0.03,  -0.35,  -0.01,  38.00, 8.09, 0.00, 0.00, 8.10, 8.04, 1, 0,  0,2147483647.0000000,2147483647.0000000,2147483647.0,2147483647,2147483647,2147483647,2147483647,2147483647,2147483647,        0,        0,   0,   0,  23.1,  23.1,  23.1
6, 11224, 1,KE9ERI,    16.57, -93,  11, 5,   coast,   -9.81,  67936.00, 3246.80, 3113.76,   33.29, 23.4, 8.04, 8.10, 3.87,  -1.88,   0.11,  -0.65, -77.94,   4.03,   0.49,  -0.04,  -0.25,  -0.10,  38.00, 8.09, 0.00, 0.00, 8.10, 8.04, 1, 0,  0,2147483647.0000000,2147483647.0000000,2147483647.0,2147483647,2147483647,2147483647,2147483647,2147483647,2147483647,        0,        0,   0,   0,  23.1,  23.1,  23.1
6, 11224, 1,KE9ERI,    16.71, -94,   8, 5,   coast,   -9.81,  67936.00, 3246.80, 3113.76,   33.29, 23.4, 8.04, 8.10, 3.87,  -1.88,   0.11,  -0.65, -77.94,   4.03,   0.49,  -0.04,  -0.25,  -0.10,  38.00, 8.09, 0.00, 0.00, 8.10, 8.04, 1, 0,  0,2147483647.0000000,2147483647.0000000,2147483647.0,2147483647,2147483647,2147483647,2147483647,2147483647,2147483647,        0,        0,   0,   0,  23.1,  23.1,  23.1
6, 11224, 1,KE9ERI,    16.79, -95,  11, 5,   coast,  -10.79,  67810.00, 3261.31, 3128.27,   31.05, 23.4, 8.04, 8.10, 3.87,  -1.82,   0.22,  -0.06, -84.17,   3.42,  -1.95,  -0.05,  -0.13,  -0.15,  39.00, 8.09, 0.00, 0.00, 8.10, 8.04, 1, 0,  0,2147483647.0000000,2147483647.0000000,2147483647.0,2147483647,2147483647,2147483647,2147483647,2147483647,2147483647,        0,        0,   0,   0,  23.1,  23.1,  23.1
6, 11224, 1,KE9ERI,    16.82, -94,   8, 5,   coast,  -10.79,  67810.00, 3261.31, 3128.27,   31.05, 23.4, 8.04, 8.10, 3.87,  -1.82,   0.22,  -0.06, -84.17,   3.42,  -1.95,  -0.05,  -0.13,  -0.15,  39.00, 8.09, 0.00, 0.00, 8.04, 8.04, 1, 0,  0,2147483647.0000000,2147483647.0000000,2147483647.0,2147483647,2147483647,2147483647,2147483647,2147483647,2147483647,        0,        0,   0,   0,  23.1,  23.1,  23.1
6, 11224, 1,KE9ERI,    16.82, -94,  19, 5,   coast,  -10.79,  67810.00, 3261.31, 3128.27,   31.05, 23.4, 8.04, 8.10, 3.87,  -1.82,   0.22,  -0.06, -84.17,   3.42,  -1.95,  -0.05,  -0.13,  -0.15,  39.00, 8.09, 0.00, 0.00, 8.04, 8.04, 1, 0,  0,2147483647.0000000,2147483647.0000000,2147483647.0,2147483647,2147483647,2147483647,2147483647,2147483647,2147483647,        0,        0,   0,   0,  23.1,  23.1,  23.1
6, 11224, 1,KE9ERI,    16.90, -94,   7, 5,   coast,  -12.26,  67728.00, 3270.76, 3137.73,   29.83, 23.4, 8.04, 8.10, 3.87,  -1.76,   0.33,   0.06, -79.16,   7.02,  -2.38,  -0.06,  -0.07,  -0.17,  40.00, 8.09, 0.00, 0.00, 8.04, 8.04, 1, 0,  0,2147483647.0000000,2147483647.0000000,2147483647.0,2147483647,2147483647,2147483647,2147483647,2147483647,2147483647,        0,        0,   0,   0,  23.1,  23.1,  23.1
6, 11224, 1,KE9ERI,    16.93, -93,  12, 5,   coast,  -12.26,  67728.00, 3270.76, 3137.73,   29.83, 23.4, 8.04, 8.10, 3.87,  -1.76,   0.33,   0.06, -79.16,   7.02,  -2.38,  -0.06,  -0.07,  -0.17,  40.00, 8.07, 0.00, 0.00, 8.10, 8.04, 1, 0,  0,2147483647.0000000,2147483647.0000000,2147483647.0,2147483647,2147483647,2147483647,2147483647,2147483647,2147483647,        0,        0,   0,   0,  23.1,  23.1,  23.1
6, 11224, 1,KE9ERI,    16.93, -93,  10, 5,   coast,  -12.26,  67728.00, 3270.76, 3137.73,   29.83, 23.4, 8.04, 8.10, 3.87,  -1.76,   0.33,   0.06, -79.16,   7.02,  -2.38,  -0.06,  -0.07,  -0.17,  40.00, 8.07, 0.00, 0.00, 8.10, 8.04, 1, 0,  0,2147483647.0000000,2147483647.0000000,2147483647.0,2147483647,2147483647,2147483647,2147483647,2147483647,2147483647,        0,        0,   0,   0,  23.1,  23.1,  23.1
6, 11224, 1,KE9ERI,    17.01, -91,   9, 5,   coast,  -11.77,  67653.00, 3279.42, 3146.38,   28.56, 23.4, 8.04, 8.10, 3.87,  -1.71,   0.27,  -0.24, -77.03,   5.62,  -0.73,  -0.06,  -0.01,  -0.17,  41.00, 8.07, 0.00, 0.00, 8.10, 8.04, 1, 0,  0,2147483647.0000000,2147483647.0000000,2147483647.0,2147483647,2147483647,2147483647,2147483647,2147483647,2147483647,        0,        0,   0,   0,  23.1,  23.1,  23.1
6, 11224, 1,KE9ERI,    17.04, -92,   5, 5,   coast,  -11.77,  67653.00, 3279.42, 3146.38,   28.56, 23.4, 8.04, 8.10, 3.87,  -1.71,   0.27,  -0.24, -77.03,   5.62,  -0.73,  -0.06,  -0.01,  -0.17,  41.00, 8.09, 0.00, 0.00, 8.04, 8.04, 1, 0,  0,2147483647.0000000,2147483647.0000000,2147483647.0,2147483647,2147483647,2147483647,2147483647,2147483647,2147483647,        0,        0,   0,   0,  23.1,  23.1,  23.1
6, 11224, 1,KE9ERI,    17.12, -93,   7, 5,   coast,  -10.79,  67542.00, 3292.24, 3159.20,   27.36, 23.4, 8.04, 8.10, 3.87,  -1.65,  -0.13,   0.04, -75.50,   4.64,  -1.71,  -0.07,   0.05,  -0.16,  41.00, 8.09, 0.00, 0.00, 8.04, 8.04, 1, 0,  0,2147483647.0000000,2147483647.0000000,2147483647.0,2147483647,2147483647,2147483647,2147483647,2147483647,2147483647,        0,        0,   0,   0,  23.1,  23.1,  23.1
6, 11224, 1,KE9ERI,    17.15, -92,   7, 5,   coast,  -10.79,  67542.00, 3292.24, 3159.20,   27.36, 23.4, 8.04, 8.10, 3.87,  -1.65,  -0.13,   0.04, -75.50,   4.64,  -1.71,  -0.07,   0.05,  -0.16,  41.00, 8.09, 0.00, 0.00, 8.04, 8.04, 1, 0,  0,2147483647.0000000,2147483647.0000000,2147483647.0,2147483647,2147483647,2147483647,2147483647,2147483647,2147483647,        0,        0,   0,   0,  23.1,  23.1,  23.1
6, 11224, 1,KE9ERI,    17.23, -93,   6, 5,   coast,  -13.24,  67478.00, 3299.64, 3166.61,   26.10, 23.4, 8.04, 8.10, 3.87,  -1.59,   0.12,   0.04, -74.10,   4.52,  -1.71,  -0.07,   0.10,  -0.15,  42.00, 8.09, 0.00, 0.00, 8.04, 8.04, 1, 0,  0,2147483647.0000000,2147483647.0000000,2147483647.0,2147483647,2147483647,2147483647,2147483647,2147483647,2147483647,        0,        0,   0,   0,  23.1,  23.1,  23.1
6, 11224, 1,KE9ERI,    17.26, -94,  11, 5,   coast,  -13.24,  67478.00, 3299.64, 3166.61,   26.10, 23.4, 8.04, 8.10, 3.87,  -1.59,   0.12,   0.04, -74.10,   4.52,  -1.71,  -0.07,   0.10,  -0.15,  42.00, 8.09, 0.00, 0.00, 8.10, 8.04, 1, 0,  0,2147483647.0000000,2147483647.0000000,2147483647.0,2147483647,2147483647,2147483647,2147483647,2147483647,2147483647,        0,        0,   0,   0,  23.1,  23.1,  23.1
6, 11224, 1,KE9ERI,    17.29, -94,  19, 5,   coast,  -13.24,  67478.00, 3299.64, 3166.61,   26.10, 23.4, 8.04, 8.10, 3.87,  -1.59,   0.12,   0.04, -74.10,   4.52,  -1.71,  -0.07,   0.10,  -0.15,  42.00, 8.09, 0.00, 0.00, 8.10, 8.04, 1, 0,  0,2147483647.0000000,2147483647.0000000,2147483647.0,2147483647,2147483647,2147483647,2147483647,2147483647,2147483647,        0,        0,   0,   0,  23.1,  23.1,  23.1
6, 11224, 1,KE9ERI,    17.34, -97,  11, 5,   coast,  -11.28,  67380.00, 3310.99, 3177.95,   24.82, 23.4, 8.04, 8.10, 3.87,  -1.53,   0.09,   0.09, -72.45,   3.97,  -1.34,  -0.07,   0.15,  -0.12,  42.00, 8.09, 0.00, 0.00, 8.10, 8.04, 1, 0,  0,2147483647.0000000,2147483647.0000000,2147483647.0,2147483647,2147483647,2147483647,2147483647,2147483647,2147483647,        0,        0,   0,   0,  23.1,  23.1,  23.1
6, 11224, 1,KE9ERI,    17.37, -97,   5, 5,   coast,  -11.28,  67380.00, 3310.99, 3177.95,   24.82, 23.4, 8.04, 8.10, 3.87,  -1.53,   0.09,   0.09, -72.45,   3.97,  -1.34,  -0.07,   0.15,  -0.12,  42.00, 8.09, 0.00, 0.00, 8.04, 8.10, 1, 0,  0,2147483647.0000000,2147483647.0000000,2147483647.0,2147483647,2147483647,2147483647,2147483647,2147483647,2147483647,        0,        0,   0,   0,  23.1,  23.1,  23.1
6, 11224, 1,KE9ERI,    17.45, -94,   5, 5,   coast,  -10.79,  67311.00, 3318.98, 3185.95,   23.64, 23.4, 8.04, 8.10, 3.87,  -1.62,   0.01,   0.06, -70.98,   3.48,  -1.59,  -0.07,   0.19,  -0.09,  42.00, 8.09, 0.00, 0.00, 8.04, 8.10, 1, 0,  0,2147483647.0000000,2147483647.0000000,2147483647.0,2147483647,2147483647,2147483647,2147483647,2147483647,2147483647,        0,        0,   0,   0,  23.1,  23.1,  23.1
6, 11224, 1,KE9ERI,    17.48, -93,  10, 5,   coast,  -10.79,  67311.00, 3318.98, 3185.95,   23.64, 23.4, 8.04, 8.10, 3.87,  -1.62,   0.01,   0.06, -70.98,   3.48,  -1.59,  -0.07,   0.19,  -0.09,  42.00, 8.09, 0.00, 0.00, 8.04, 8.04, 1, 0,  0,2147483647.0000000,2147483647.0000000,2147483647.0,2147483647,2147483647,2147483647,2147483647,2147483647,2147483647,        0,        0,   0,   0,  23.1,  23.1,  23.1
6, 11224, 1,KE9ERI,    17.56, -92,   6, 5,   coast,  -10.79,  67227.00, 3328.72, 3195.69,   22.49, 23.4, 8.04, 8.10, 3.87,  -1.56,   0.01,   0.04, -69.15,   1.83,  -3.05,  -0.07,   0.23,  -0.05,  43.00, 8.09, 0.00, 0.00, 8.04, 8.04, 1, 0,  0,2147483647.0000000,2147483647.0000000,2147483647.0,2147483647,2147483647,2147483647,2147483647,2147483647,2147483647,        0,        0,   0,   0,  23.1,  23.1,  23.1
6, 11224, 1,KE9ERI,    17.70, -96,  16, 5,   coast,  -10.79,  67227.00, 3328.72, 3195.69,   22.49, 23.4, 8.04, 8.10, 3.87,  -1.56,   0.01,   0.04, -69.15,   1.83,  -3.05,  -0.07,   0.23,  -0.05,  43.00, 8.09, 0.00, 0.00, 8.10, 8.04, 1, 0,  0,2147483647.0000000,2147483647.0000000,2147483647.0,2147483647,2147483647,2147483647,2147483647,2147483647,2147483647,        0,        0,   0,   0,  23.1,  23.1,  23.1
6, 11224, 1,KE9ERI,    17.89, -91,  12, 5,   coast,   -9.32,  67007.00, 3354.29, 3221.25,   19.19, 23.4, 8.04, 8.10, 3.87,  -1.43,   0.09,  -0.01, -66.16,   0.92,  -4.46,  -0.08,   0.31,   0.10,  44.00, 8.09, 0.00, 0.00, 8.10, 8.04, 1, 0,  0,2147483647.0000000,2147483647.0000000,2147483647.0,2147483647,2147483647,2147483647,2147483647,2147483647,2147483647,        0,        0,   0,   0,  23.1,  23.1,  23.1
6, 11224, 1,KE9ERI,    17.92, -92,  13, 5,   coast,   -9.32,  67007.00, 3354.29, 3221.25,   19.19, 23.4, 8.10, 8.10, 3.88,  -1.43,   0.09,  -0.01, -66.16,   0.92,  -4.46,  -0.08,   0.31,   0.10,  44.00, 8.07, 0.00, 0.00, 8.04, 8.04, 1, 0,  0,2147483647.0000000,2147483647.0000000,2147483647.0,2147483647,2147483647,2147483647,2147483647,2147483647,2147483647,        0,        0,   0,   0,  23.1,  23.1,  23.1
6, 11224, 1,KE9ERI,    17.92, -91,  12, 5,   coast,   -9.32,  67007.00, 3354.29, 3221.25,   19.19, 23.4, 8.10, 8.10, 3.88,  -1.43,   0.09,  -0.01, -66.16,   0.92,  -4.46,  -0.08,   0.31,   0.10,  44.00, 8.07, 0.00, 0.00, 8.04, 8.04, 1, 0,  0,2147483647.0000000,2147483647.0000000,2147483647.0,2147483647,2147483647,2147483647,2147483647,2147483647,2147483647,        0,        0,   0,   0,  23.1,  23.1,  23.1
6, 11224, 1,KE9ERI,    18.11, -94,   6, 5,   coast,  -10.79,  66852.00, 3372.34, 3239.30,   17.00, 23.4, 8.10, 8.10, 3.88,  -1.39,   0.03,   0.08, -65.55,   0.37,  -3.78,  -0.08,   0.33,   0.21,  45.00, 8.07, 0.00, 0.00, 8.04, 8.04, 1, 0,  0,2147483647.0000000,2147483647.0000000,2147483647.0,2147483647,2147483647,2147483647,2147483647,2147483647,2147483647,        0,        0,   0,   0,  23.1,  23.1,  23.1
6, 11224, 1,KE9ERI,    18.14, -96,  15, 5,   coast,  -10.79,  66852.00, 3372.34, 3239.30,   17.00, 23.4, 8.04, 8.10, 3.87,  -1.39,   0.03,   0.08, -65.55,   0.37,  -3.78,  -0.08,   0.33,   0.21,  45.00, 8.09, 0.00, 0.00, 8.10, 8.04, 1, 0,  0,2147483647.0000000,2147483647.0000000,2147483647.0,2147483647,2147483647,2147483647,2147483647,2147483647,2147483647,        0,        0,   0,   0,  23.1,  23.1,  23.1
6, 11224, 1,KE9ERI,    18.33, -92,  10, 5,   coast,  -10.79,  66711.00, 3388.79, 3255.75,   14.69, 23.4, 8.04, 8.10, 3.87,  -1.34,   0.17,   0.13, -64.88,  -0.55,  -2.93,  -0.08,   0.32,   0.33,  46.00, 8.09, 0.00, 0.00, 8.10, 8.04, 1, 0,  0,2147483647.0000000,2147483647.0000000,2147483647.0,2147483647,2147483647,2147483647,2147483647,2147483647,2147483647,        0,        0,   0,   0,  23.1,  23.1,  23.1
6, 11224, 1,KE9ERI,    18.36, -91,  12, 5,   coast,  -10.79,  66711.00, 3388.79, 3255.75,   14.69, 23.4, 8.04, 8.10, 3.87,  -1.34,   0.17,   0.13, -64.88,  -0.55,  -2.93,  -0.08,   0.32,   0.33,  46.00, 8.09, 0.00, 0.00, 8.04, 8.04, 1, 0,  0,2147483647.0000000,2147483647.0000000,2147483647.0,2147483647,2147483647,2147483647,2147483647,2147483647,2147483647,        0,        0,   0,   0,  23.1,  23.1,  23.1
6, 11224, 1,KE9ERI,    18.44, -92,   7, 5,   coast,  -11.77,  66633.00, 3397.90, 3264.87,   13.50, 23.4, 8.04, 8.10, 3.87,  -1.30,   0.04,   0.37, -64.88,  -1.71,  -2.69,  -0.08,   0.30,   0.39,  46.00, 8.09, 0.00, 0.00, 8.04, 8.04, 1, 0,  0,2147483647.0000000,2147483647.0000000,2147483647.0,2147483647,2147483647,2147483647,2147483647,2147483647,2147483647,        0,        0,   0,   0,  23.1,  23.1,  23.1
6, 11224, 1,KE9ERI,    18.47, -91,   7, 5,   coast,  -11.77,  66633.00, 3397.90, 3264.87,   13.50, 23.4, 8.10, 8.10, 3.87,  -1.30,   0.04,   0.37, -64.88,  -1.71,  -2.69,  -0.08,   0.30,   0.39,  46.00, 8.09, 0.00, 0.00, 8.04, 8.04, 1, 0,  0,2147483647.0000000,2147483647.0000000,2147483647.0,2147483647,2147483647,2147483647,2147483647,2147483647,2147483647,        0,        0,   0,   0,  23.1,  23.1,  23.1
6, 11224, 1,KE9ERI,    18.55, -94,   8, 5,   coast,  -11.28,  66546.00, 3408.07, 3275.04,   12.29, 23.4, 8.10, 8.10, 3.87,  -1.31,   0.37,   0.15, -61.95,  -3.11,  -1.10,  -0.08,   0.28,   0.44,  46.00, 8.09, 0.00, 0.00, 8.04, 8.04, 1, 0,  0,2147483647.0000000,2147483647.0000000,2147483647.0,2147483647,2147483647,2147483647,2147483647,2147483647,2147483647,        0,        0,   0,   0,  23.1,  23.1,  23.1
6, 11224, 1,KE9ERI,    18.66, -94,  14, 5,   coast,  -10.30,  66484.00, 3415.33, 3282.30,   11.13, 23.4, 8.10, 8.10, 3.87,  -1.29,   0.04,  -0.04, -60.30,  -3.36,  -0.37,  -0.08,   0.26,   0.50,  47.00, 8.09, 0.00, 0.00, 8.04, 8.04, 1, 0,  0,2147483647.0000000,2147483647.0000000,2147483647.0,2147483647,2147483647,2147483647,2147483647,2147483647,2147483647,        0,        0,   0,   0,  23.1,  23.1,  23.1
6, 11224, 1,KE9ERI,    18.77, -93,  10, 5,   coast,  -10.30,  66428.00, 3421.89, 3288.86,   10.02, 23.4, 8.10, 8.10, 3.87,  -1.27,   0.03,  -0.01, -59.51,  -3.23,  -0.06,  -0.08,   0.22,   0.55,  47.00, 8.09, 0.00, 0.00, 8.04, 8.04, 1, 0,  0,2147483647.0000000,2147483647.0000000,2147483647.0,2147483647,2147483647,2147483647,2147483647,2147483647,2147483647,        0,        0,   0,   0,  23.1,  23.1,  23.1
6, 11224, 1,KE9ERI,    18.88, -97,  20, 5,   coast,  -11.77,  66370.00, 3428.69, 3295.65,    8.85, 23.4, 8.10, 8.10, 3.87,  -1.22,   0.12,  -0.20, -58.17,  -3.60,  -0.06,  -0.08,   0.19,   0.59,  47.00, 8.09, 0.00, 0.00, 8.04, 8.04, 1, 0,  0,2147483647.0000000,2147483647.0000000,2147483647.0,2147483647,2147483647,2147483647,2147483647,2147483647,2147483647,        0,        0,   0,   0,  23.1,  23.1,  23.1
6, 11224, 1,KE9ERI,    19.02, -96,  13, 5,   coast,  -11.77,  66370.00, 3428.69, 3295.65,    8.85, 23.4, 8.04, 8.10, 3.87,  -1.22,   0.12,  -0.20, -58.17,  -3.60,  -0.06,  -0.08,   0.19,   0.59,  47.00, 8.07, 0.00, 0.00, 8.10, 8.10, 1, 0,  0,2147483647.0000000,2147483647.0000000,2147483647.0,2147483647,2147483647,2147483647,2147483647,2147483647,2147483647,        0,        0,   0,   0,  23.1,  23.1,  23.1
6, 11224, 1,KE9ERI,    19.02, -93,  13, 5,   coast,  -11.77,  66370.00, 3428.69, 3295.65,    8.85, 23.4, 8.04, 8.10, 3.87,  -1.22,   0.12,  -0.20, -58.17,  -3.60,  -0.06,  -0.08,   0.19,   0.59,  47.00, 8.07, 0.00, 0.00, 8.10, 8.10, 1, 0,  0,2147483647.0000000,2147483647.0000000,2147483647.0,2147483647,2147483647,2147483647,2147483647,2147483647,2147483647,        0,        0,   0,   0,  23.1,  23.1,  23.1
6, 11224, 1,KE9ERI,    19.10, -91,  10, 5,   coast,  -12.75,  66248.00, 3443.00, 3309.97,    6.33, 23.4, 8.04, 8.10, 3.87,  -1.15,   0.06,  -0.05, -55.36,  -3.60,  -1.10,  -0.09,   0.12,   0.66,  48.00, 8.07, 0.00, 0.00, 8.10, 8.10, 1, 0,  0,2147483647.0000000,2147483647.0000000,2147483647.0,2147483647,2147483647,2147483647,2147483647,2147483647,2147483647,        0,        0,   0,   0,  23.1,  23.1,  23.1
6, 11224, 1,KE9ERI,    19.21, -90,  12, 5,   coast,   -9.81,  66172.00, 3451.93, 3318.90,    5.14, 23.4, 8.04, 8.10, 3.87,  -1.14,   0.12,  -0.06, -54.93,  -3.30,  -0.79,  -0.09,   0.08,   0.69,  48.00, 8.07, 0.00, 0.00, 8.10, 8.10, 1, 0,  0,2147483647.0000000,2147483647.0000000,2147483647.0,2147483647,2147483647,2147483647,2147483647,2147483647,2147483647,        0,        0,   0,   0,  23.1,  23.1,  23.1
6, 11224, 1,KE9ERI,    19.24, -91,   8, 5,   coast,   -9.81,  66172.00, 3451.93, 3318.90,    5.14, 23.4, 8.04, 8.10, 3.87,  -1.14,   0.12,  -0.06, -54.93,  -3.30,  -0.79,  -0.09,   0.08,   0.69,  48.00, 8.08, 0.00, 0.00, 8.10, 8.04, 1, 0,  0,2147483647.0000000,2147483647.0000000,2147483647.0,2147483647,2147483647,2147483647,2147483647,2147483647,2147483647,        0,        0,   0,   0,  23.1,  23.1,  23.1
6, 11224, 1,KE9ERI,    19.29, -93,  11, 5,   coast,   -9.81,  66172.00, 3451.93, 3318.90,    5.14, 23.4, 8.04, 8.10, 3.87,  -1.14,   0.12,  -0.06, -54.93,  -3.30,  -0.79,  -0.09,   0.08,   0.69,  48.00, 8.08, 0.00, 0.00, 8.10, 8.04, 1, 0,  0,2147483647.0000000,2147483647.0000000,2147483647.0,2147483647,2147483647,2147483647,2147483647,2147483647,2147483647,        0,        0,   0,   0,  23.1,  23.1,  23.1
6, 11224, 1,KE9ERI,    19.32, -93,   6, 5,   coast,  -13.24,  66111.00, 3459.11, 3326.07,    3.94, 23.4, 8.04, 8.10, 3.87,  -1.13,   0.19,   0.02, -54.63,  -3.42,   0.12,  -0.09,   0.03,   0.72,  49.00, 8.08, 0.00, 0.00, 8.10, 8.04, 1, 0,  0,2147483647.0000000,2147483647.0000000,2147483647.0,2147483647,2147483647,2147483647,2147483647,2147483647,2147483647,        0,        0,   0,   0,  23.1,  23.1,  23.1
6, 11224, 1,KE9ERI,    19.35, -93,   7, 5,   coast,  -13.24,  66111.00, 3459.11, 3326.07,    3.94, 23.4, 8.04, 8.10, 3.87,  -1.13,   0.19,   0.02, -54.63,  -3.42,   0.12,  -0.09,   0.03,   0.72,  49.00, 8.09, 0.00, 0.00, 8.04, 8.04, 1, 0,  0,2147483647.0000000,2147483647.0000000,2147483647.0,2147483647,2147483647,2147483647,2147483647,2147483647,2147483647,        0,        0,   0,   0,  23.1,  23.1,  23.1
6, 11224, 1,KE9ERI,    19.43, -91,   8, 5,   coast,  -10.79,  66059.00, 3465.22, 3332.19,    2.70, 23.4, 8.04, 8.10, 3.87,  -1.09,   0.17,  -0.07, -54.38,  -3.60,   0.67,  -0.10,  -0.01,   0.74,  49.00, 8.09, 0.00, 0.00, 8.04, 8.04, 1, 0,  0,2147483647.0000000,2147483647.0000000,2147483647.0,2147483647,2147483647,2147483647,2147483647,2147483647,2147483647,        0,        0,   0,   0,  23.1,  23.1,  23.1
6, 11224, 1,KE9ERI,    19.46, -91,   7, 5,   coast,  -10.79,  66059.00, 3465.22, 3332.19,    2.70, 23.4, 8.04, 8.10, 3.87,  -1.09,   0.17,  -0.07, -54.38,  -3.60,   0.67,  -0.10,  -0.01,   0.74,  49.00, 8.09, 0.00, 0.00, 8.04, 8.04, 1, 0,  0,2147483647.0000000,2147483647.0000000,2147483647.0,2147483647,2147483647,2147483647,2147483647,2147483647,2147483647,        0,        0,   0,   0,  23.1,  23.1,  23.1
6, 11224, 1,KE9ERI,    19.54, -90,   6, 5,   coast,  -10.79,  65994.00, 3472.88, 3339.84,    1.55, 23.4, 8.04, 8.10, 3.87,  -1.08,   0.14,  -0.06, -54.63,  -3.78,   1.59,  -0.10,  -0.06,   0.75,  50.00, 8.09, 0.00, 0.00, 8.04, 8.04, 1, 0,  0,2147483647.0000000,2147483647.0000000,2147483647.0,2147483647,2147483647,2147483647,2147483647,2147483647,2147483647,        0,        0,   0,   0,  23.1,  23.1,  23.1
6, 11224, 1,KE9ERI,    19.65, -91,   6, 5,   coast,   -9.81,  65961.00, 3476.77, 3343.73,    0.44, 23.4, 8.04, 8.10, 3.87,  -1.06,   0.19,  -0.02, -54.99,  -3.72,   2.50,  -0.10,  -0.10,   0.76,  50.00, 8.09, 0.00, 0.00, 8.04, 8.04, 1, 0,  0,2147483647.0000000,2147483647.0000000,2147483647.0,2147483647,2147483647,2147483647,2147483647,2147483647,2147483647,        0,        0,   0,   0,  23.1,  23.1,  23.1
6, 11224, 1,KE9ERI,    19.68, -90,   7, 5,   coast,   -9.81,  65961.00, 3476.77, 3343.73,    0.44, 23.4, 8.04, 8.10, 3.87,  -1.06,   0.19,  -0.02, -54.99,  -3.72,   2.50,  -0.10,  -0.10,   0.76,  50.00, 8.09, 0.00, 0.00, 8.04, 8.04, 1, 0,  0,2147483647.0000000,2147483647.0000000,2147483647.0,2147483647,2147483647,2147483647,2147483647,2147483647,2147483647,        0,        0,   0,   0,  23.1,  23.1,  23.1
6, 11224, 1,KE9ERI,    19.76, -90,  11, 5,   coast,  -10.79,  65892.00, 3484.90, 3351.87,    0.00, 23.4, 8.04, 8.10, 3.87,  -1.08,   0.14,   0.00, -54.69,  -3.23,   2.69,  -0.11,  -0.15,   0.77,  51.00, 8.09, 0.00, 0.00, 8.04, 8.04, 1, 0,  0,2147483647.0000000,2147483647.0000000,2147483647.0,2147483647,2147483647,2147483647,2147483647,2147483647,2147483647,        0,        0,   0,   0,  23.1,  23.1,  23.1
6, 11224, 1,KE9ERI,    19.79, -90,   5, 5,   coast,  -10.79,  65892.00, 3484.90, 3351.87,    0.00, 23.4, 8.04, 8.10, 3.87,  -1.08,   0.14,   0.00, -54.69,  -3.23,   2.69,  -0.11,  -0.15,   0.77,  51.00, 8.07, 0.00, 0.00, 8.04, 8.04, 1, 0,  0,2147483647.0000000,2147483647.0000000,2147483647.0,2147483647,2147483647,2147483647,2147483647,2147483647,2147483647,        0,        0,   0,   0,  23.1,  23.1,  23.1
6, 11224, 1,KE9ERI,    19.87, -91,   8, 5,   coast,   -9.32,  65849.00, 3489.97, 3356.94,    0.00, 23.4, 8.04, 8.10, 3.87,  -1.01,   0.14,  -0.08, -54.63,  -3.66,   3.78,  -0.11,  -0.20,   0.76,  51.00, 8.07, 0.00, 0.00, 8.04, 8.04, 1, 0,  0,2147483647.0000000,2147483647.0000000,2147483647.0,2147483647,2147483647,2147483647,2147483647,2147483647,2147483647,        0,        0,   0,   0,  23.1,  23.1,  23.1
6, 11224, 1,KE9ERI,    19.90, -92,   7, 5,   coast,   -9.32,  65849.00, 3489.97, 3356.94,    0.00, 23.4, 8.04, 8.10, 3.87,  -1.01,   0.14,  -0.08, -54.63,  -3.66,   3.78,  -0.11,  -0.20,   0.76,  51.00, 8.09, 0.00, 0.00, 8.10, 8.04, 1, 0,  0,2147483647.0000000,2147483647.0000000,2147483647.0,2147483647,2147483647,2147483647,2147483647,2147483647,2147483647,        0,        0,   0,   0,  23.1,  23.1,  23.1
6, 11224, 1,KE9ERI,    19.98, -93,   8, 5,   coast,  -10.79,  65780.00, 3498.12, 3365.08,    0.00, 23.4, 8.04, 8.10, 3.87,  -1.01,   0.17,  -0.11, -54.08,  -3.11,   3.97,  -0.11,  -0.25,   0.76,  52.00, 8.09, 0.00, 0.00, 8.10, 8.04, 1, 0,  0,2147483647.0000000,2147483647.0000000,2147483647.0,2147483647,2147483647,2147483647,2147483647,2147483647,2147483647,        0,        0,   0,   0,  23.1,  23.1,  23.1
6, 11224, 1,KE9ERI,    20.01, -93,  13, 5,   coast,  -10.79,  65780.00, 3498.12, 3365.08,    0.00, 23.4, 8.04, 8.10, 3.87,  -1.01,   0.17,  -0.11, -54.08,  -3.11,   3.97,  -0.11,  -0.25,   0.76,  52.00, 8.08, 0.00, 0.00, 8.04, 8.04, 1, 0,  0,2147483647.0000000,2147483647.0000000,2147483647.0,2147483647,2147483647,2147483647,2147483647,2147483647,2147483647,        0,        0,   0,   0,  23.1,  23.1,  23.1
6, 11224, 1,KE9ERI,    20.09, -91,  15, 5,   coast,  -11.77,  65744.00, 3502.37, 3369.34,    0.00, 23.4, 8.04, 8.10, 3.87,  -0.98,   0.14,  -0.04, -53.59,  -2.44,   3.85,  -0.12,  -0.29,   0.74,  52.00, 8.08, 0.00, 0.00, 8.04, 8.04, 1, 0,  0,2147483647.0000000,2147483647.0000000,2147483647.0,2147483647,2147483647,2147483647,2147483647,2147483647,2147483647,        0,        0,   0,   0,  23.1,  23.1,  23.1
6, 11224, 1,KE9ERI,    20.12, -91,   9, 5,   coast,  -11.77,  65744.00, 3502.37, 3369.34,    0.00, 23.4, 8.10, 8.10, 3.87,  -0.98,   0.14,  -0.04, -53.59,  -2.44,   3.85,  -0.12,  -0.29,   0.74,  52.00, 8.08, 0.00, 0.00, 8.04, 8.04, 1, 0,  0,2147483647.0000000,2147483647.0000000,2147483647.0,2147483647,2147483647,2147483647,2147483647,2147483647,2147483647,        0,        0,   0,   0,  23.1,  23.1,  23.1
6, 11224, 1,KE9ERI,    20.20, -92,  17, 5,   coast,  -10.30,  65682.00, 3509.70, 3376.67,    0.00, 23.4, 8.10, 8.10, 3.87,  -0.93,   0.14,  -0.05, -52.25,  -2.14,   3.91,  -0.12,  -0.33,   0.73,  53.00, 8.08, 0.00, 0.00, 8.04, 8.04, 1, 0,  0,2147483647.0000000,2147483647.0000000,2147483647.0,2147483647,2147483647,2147483647,2147483647,2147483647,2147483647,        0,        0,   0,   0,  23.1,  23.1,  23.1
6, 11224, 1,KE9ERI,    20.23, -91,   8, 5,   coast,  -10.30,  65682.00, 3509.70, 3376.67,    0.00, 23.4, 8.04, 8.10, 3.87,  -0.93,   0.14,  -0.05, -52.25,  -2.14,   3.91,  -0.12,  -0.33,   0.73,  53.00, 8.08, 0.00, 0.00, 8.04, 8.04, 1, 0,  0,2147483647.0000000,2147483647.0000000,2147483647.0,2147483647,2147483647,2147483647,2147483647,2147483647,2147483647,        0,        0,   0,   0,  23.1,  23.1,  23.1
6, 11224, 1,KE9ERI,    20.29, -87,   6, 5,   coast,  -10.30,  65682.00, 3509.70, 3376.67,    0.00, 23.4, 8.04, 8.10, 3.87,  -0.93,   0.14,  -0.05, -52.25,  -2.14,   3.91,  -0.12,  -0.33,   0.73,  53.00, 8.08, 0.00, 0.00, 8.04, 8.04, 1, 0,  0,2147483647.0000000,2147483647.0000000,2147483647.0,2147483647,2147483647,2147483647,2147483647,2147483647,2147483647,        0,        0,   0,   0,  23.1,  23.1,  23.1
6, 11224, 1,KE9ERI,    20.31, -91,   8, 5,   coast,  -11.28,  65635.00, 3515.26, 3382.22,    0.00, 23.4, 8.04, 8.10, 3.87,  -0.96,   0.24,  -0.08, -49.62,  -2.50,   3.11,  -0.13,  -0.37,   0.71,  53.00, 8.08, 0.00, 0.00, 8.04, 8.04, 1, 0,  0,2147483647.0000000,2147483647.0000000,2147483647.0,2147483647,2147483647,2147483647,2147483647,2147483647,2147483647,        0,        0,   0,   0,  23.1,  23.1,  23.1
6, 11224, 1,KE9ERI,    20.42, -90,   9, 5,   coast,  -10.30,  65582.00, 3521.53, 3388.50,    0.00, 23.4, 8.04, 8.10, 3.87,  -0.89,   0.21,  -0.08, -50.72,  -2.87,   3.11,  -0.13,  -0.40,   0.68,  54.00, 8.08, 0.00, 0.00, 8.04, 8.04, 1, 0,  0,2147483647.0000000,2147483647.0000000,2147483647.0,2147483647,2147483647,2147483647,2147483647,2147483647,2147483647,        0,        0,   0,   0,  23.1,  23.1,  23.1
6, 11224, 1,KE9ERI,    20.45, -90,   5, 5,   coast,  -10.30,  65582.00, 3521.53, 3388.50,    0.00, 23.4, 8.10, 8.10, 3.87,  -0.89,   0.21,  -0.08, -50.72,  -2.87,   3.11,  -0.13,  -0.40,   0.68,  54.00, 8.09, 0.00, 0.00, 8.04, 8.10, 1, 0,  0,2147483647.0000000,2147483647.0000000,2147483647.0,2147483647,2147483647,2147483647,2147483647,2147483647,2147483647,        0,        0,   0,   0,  23.1,  23.1,  23.1
6, 11224, 1,KE9ERI,    20.53, -88,   5, 5,   coast,   -9.32,  65532.00, 3527.45, 3394.42,    0.00, 23.4, 8.10, 8.10, 3.87,  -0.93,   0.21,  -0.09, -52.06,  -2.50,   3.72,  -0.14,  -0.44,   0.65,  54.00, 8.09, 0.00, 0.00, 8.04, 8.10, 1, 0,  0,2147483647.0000000,2147483647.0000000,2147483647.0,2147483647,2147483647,2147483647,2147483647,2147483647,2147483647,        0,        0,   0,   0,  23.1,  23.1,  23.1
6, 11224, 1,KE9ERI,    20.56, -88,   6, 5,   coast,   -9.32,  65532.00, 3527.45, 3394.42,    0.00, 23.4, 8.04, 8.10, 3.87,  -0.93,   0.21,  -0.09, -52.06,  -2.50,   3.72,  -0.14,  -0.44,   0.65,  54.00, 8.09, 0.00, 0.00, 8.10, 8.04, 1, 0,  0,2147483647.0000000,2147483647.0000000,2147483647.0,2147483647,2147483647,2147483647,2147483647,2147483647,2147483647,        0,        0,   0,   0,  23.1,  23.1,  23.1
6, 11224, 1,KE9ERI,    20.64, -88,   6, 5,   coast,   -9.81,  65487.00, 3532.79, 3399.75,    0.00, 23.4, 8.04, 8.10, 3.87,  -0.89,   0.22,  -0.22, -53.28,  -2.56,   4.09,  -0.14,  -0.46,   0.62,  55.00, 8.09, 0.00, 0.00, 8.10, 8.04, 1, 0,  0,2147483647.0000000,2147483647.0000000,2147483647.0,2147483647,2147483647,2147483647,2147483647,2147483647,2147483647,        0,        0,   0,   0,  23.1,  23.1,  23.1
6, 11224, 1,KE9ERI,    20.67, -88,   8, 5,   coast,   -9.81,  65487.00, 3532.79, 3399.75,    0.00, 23.4, 8.10, 8.10, 3.87,  -0.89,   0.22,  -0.22, -53.28,  -2.56,   4.09,  -0.14,  -0.46,   0.62,  55.00, 8.08, 0.00, 0.00, 8.04, 8.10, 1, 0,  0,2147483647.0000000,2147483647.0000000,2147483647.0,2147483647,2147483647,2147483647,2147483647,2147483647,2147483647,        0,        0,   0,   0,  23.1,  23.1,  23.1
6, 11224, 1,KE9ERI,    20.75, -88,   8, 5,   coast,  -10.30,  65442.00, 3538.12, 3405.09,    0.00, 23.4, 8.10, 8.10, 3.87,  -0.83,   0.24,  -0.20, -54.99,  -1.95,   4.82,  -0.15,  -0.49,   0.58,  55.00, 8.08, 0.00, 0.00, 8.04, 8.10, 1, 0,  0,2147483647.0000000,2147483647.0000000,2147483647.0,2147483647,2147483647,2147483647,2147483647,2147483647,2147483647,        0,        0,   0,   0,  23.1,  23.1,  23.1
6, 11224, 1,KE9ERI,    20.86, -87,   9, 5,   coast,  -10.30,  65395.00, 3543.70, 3410.66,    0.00, 23.4, 8.10, 8.10, 3.87,  -0.85,   0.22,  -0.27, -56.88,  -1.16,   5.74,  -0.16,  -0.52,   0.53,  56.00, 8.08, 0.00, 0.00, 8.04, 8.10, 1, 0,  0,2147483647.0000000,2147483647.0000000,2147483647.0,2147483647,2147483647,2147483647,2147483647,2147483647,2147483647,        0,        0,   0,   0,  23.1,  23.1,  23.1
6, 11224, 1,KE9ERI,    20.89, -87,  10, 5,   coast,  -10.30,  65395.00, 3543.70, 3410.66,    0.00, 23.4, 8.10, 8.10, 3.87,  -0.85,   0.22,  -0.27, -56.88,  -1.16,   5.74,  -0.16,  -0.52,   0.53,  56.00, 8.09, 0.00, 0.00, 8.04, 8.04, 1, 0,  0,2147483647.0000000,2147483647.0000000,2147483647.0,2147483647,2147483647,2147483647,2147483647,2147483647,2147483647,        0,        0,   0,   0,  23.1,  23.1,  23.1
6, 11224, 1,KE9ERI,    20.97, -87,   7, 5,   coast,  -11.28,  65351.00, 3548.92, 3415.89,    0.00, 23.4, 8.10, 8.10, 3.87,  -0.84,   0.25,  -0.27, -59.20,  -0.12,   5.68,  -0.17,  -0.54,   0.48,  56.00, 8.09, 0.00, 0.00, 8.04, 8.04, 1, 0,  0,2147483647.0000000,2147483647.0000000,2147483647.0,2147483647,2147483647,2147483647,2147483647,2147483647,2147483647,        0,        0,   0,   0,  23.1,  23.1,  23.1
6, 11224, 1,KE9ERI,    21.00, -87,   8, 5,   coast,  -11.28,  65351.00, 3548.92, 3415.89,    0.00, 23.4, 8.04, 8.10, 3.87,  -0.84,   0.25,  -0.27, -59.20,  -0.12,   5.68,  -0.17,  -0.54,   0.48,  56.00, 8.09, 0.00, 0.00, 8.04, 8.04, 1, 0,  0,2147483647.0000000,2147483647.0000000,2147483647.0,2147483647,2147483647,2147483647,2147483647,2147483647,2147483647,        0,        0,   0,   0,  23.1,  23.1,  23.1
6, 11224, 1,KE9ERI,    21.08, -87,   8, 5,   coast,  -10.30,  65309.00, 3553.91, 3420.87,    0.00, 23.4, 8.04, 8.10, 3.87,  -0.81,   0.22,  -0.40, -60.97,   0.79,   6.16,  -0.17,  -0.55,   0.43,  57.00, 8.09, 0.00, 0.00, 8.04, 8.04, 1, 0,  0,2147483647.0000000,2147483647.0000000,2147483647.0,2147483647,2147483647,2147483647,2147483647,2147483647,2147483647,        0,        0,   0,   0,  23.1,  23.1,  23.1
6, 11224, 1,KE9ERI,    21.11, -87,  12, 5,   coast,  -10.30,  65309.00, 3553.91, 3420.87,    0.00, 23.4, 8.04, 8.10, 3.87,  -0.81,   0.22,  -0.40, -60.97,   0.79,   6.16,  -0.17,  -0.55,   0.43,  57.00, 8.09, 0.00, 0.00, 8.04, 8.04, 1, 0,  0,2147483647.0000000,2147483647.0000000,2147483647.0,2147483647,2147483647,2147483647,2147483647,2147483647,2147483647,        0,        0,   0,   0,  23.1,  23.1,  23.1
6, 11224, 1,KE9ERI,    21.19, -87,   8, 5,   coast,   -9.32,  65281.00, 3557.24, 3424.20,    0.00, 23.4, 8.04, 8.10, 3.87,  -0.81,   0.22,  -0.27, -62.07,   1.59,   5.98,  -0.18,  -0.56,   0.37,  58.00, 8.09, 0.00, 0.00, 8.04, 8.04, 1, 0,  0,2147483647.0000000,2147483647.0000000,2147483647.0,2147483647,2147483647,2147483647,2147483647,2147483647,2147483647,        0,        0,   0,   0,  23.1,  23.1,  23.1
6, 11224, 1,KE9ERI,    21.22, -88,   8, 5,   coast,   -9.32,  65281.00, 3557.24, 3424.20,    0.00, 23.4, 8.04, 8.10, 3.87,  -0.81,   0.22,  -0.27, -62.07,   1.59,   5.98,  -0.18,  -0.56,   0.37,  58.00, 8.08, 0.00, 0.00, 8.04, 8.10, 1, 0,  0,2147483647.0000000,2147483647.0000000,2147483647.0,2147483647,2147483647,2147483647,2147483647,2147483647,2147483647,        0,        0,   0,   0,  23.1,  23.1,  23.1
6, 11224, 1,KE9ERI,    21.22, -88,   5, 5,   coast,   -9.32,  65281.00, 3557.24, 3424.20,    0.00, 23.4, 8.04, 8.10, 3.87,  -0.81,   0.22,  -0.27, -62.07,   1.59,   5.98,  -0.18,  -0.56,   0.37,  58.00, 8.08, 0.00, 0.00, 8.04, 8.10, 1, 0,  0,2147483647.0000000,2147483647.0000000,2147483647.0,2147483647,2147483647,2147483647,2147483647,2147483647,2147483647,        0,        0,   0,   0,  23.1,  23.1,  23.1
6, 11224, 1,KE9ERI,    21.29, -90,   9, 5,   coast,   -9.32,  65281.00, 3557.24, 3424.20,    0.00, 23.4, 8.04, 8.10, 3.87,  -0.81,   0.22,  -0.27, -62.07,   1.59,   5.98,  -0.18,  -0.56,   0.37,  58.00, 8.08, 0.00, 0.00, 8.04, 8.10, 1, 0,  0,2147483647.0000000,2147483647.0000000,2147483647.0,2147483647,2147483647,2147483647,2147483647,2147483647,2147483647,        0,        0,   0,   0,  23.1,  23.1,  23.1
6, 11224, 1,KE9ERI,    21.30, -89,   8, 5,   coast,  -10.79,  65238.00, 3562.35, 3429.31,    0.00, 23.4, 8.04, 8.10, 3.87,  -0.79,   0.17,  -0.34, -62.87,   2.81,   5.31,  -0.19,  -0.56,   0.31,  58.00, 8.08, 0.00, 0.00, 8.04, 8.10, 1, 0,  0,2147483647.0000000,2147483647.0000000,2147483647.0,2147483647,2147483647,2147483647,2147483647,2147483647,2147483647,        0,        0,   0,   0,  23.1,  23.1,  23.1
6, 11224, 1,KE9ERI,    21.33, -89,   6, 5,   coast,  -10.79,  65238.00, 3562.35, 3429.31,    0.00, 23.4, 8.04, 8.10, 3.87,  -0.79,   0.17,  -0.34, -62.87,   2.81,   5.31,  -0.19,  -0.56,   0.31,  58.00, 8.09, 0.00, 0.00, 8.04, 8.04, 1, 0,  0,2147483647.0000000,2147483647.0000000,2147483647.0,2147483647,2147483647,2147483647,2147483647,2147483647,2147483647,        0,        0,   0,   0,  23.1,  23.1,  23.1
6, 11224, 1,KE9ERI,    21.41, -89,   6, 5,   coast,   -9.81,  65206.00, 3566.15, 3433.12,    0.00, 23.4, 8.04, 8.10, 3.87,  -0.81,   0.21,  -0.32, -64.09,   3.36,   4.70,  -0.20,  -0.55,   0.24,  59.00, 8.09, 0.00, 0.00, 8.04, 8.04, 1, 0,  0,2147483647.0000000,2147483647.0000000,2147483647.0,2147483647,2147483647,2147483647,2147483647,2147483647,2147483647,        0,        0,   0,   0,  23.1,  23.1,  23.1
6, 11224, 1,KE9ERI,    21.44, -90,  20, 5,   coast,   -9.81,  65206.00, 3566.15, 3433.12,    0.00, 23.4, 8.04, 8.10, 3.87,  -0.81,   0.21,  -0.32, -64.09,   3.36,   4.70,  -0.20,  -0.55,   0.24,  59.00, 8.09, 0.00, 0.00, 8.04, 8.04, 1, 0,  0,2147483647.0000000,2147483647.0000000,2147483647.0,2147483647,2147483647,2147483647,2147483647,2147483647,2147483647,        0,        0,   0,   0,  23.1,  23.1,  23.1
6, 11224, 1,KE9ERI,    21.52, -90,   5, 5,   coast,  -10.30,  65166.00, 3570.91, 3437.88,    0.00, 23.4, 8.04, 8.10, 3.87,  -0.78,   0.16,  -0.32, -64.58,   4.58,   4.52,  -0.21,  -0.54,   0.18,  60.00, 8.09, 0.00, 0.00, 8.04, 8.04, 1, 0,  0,2147483647.0000000,2147483647.0000000,2147483647.0,2147483647,2147483647,2147483647,2147483647,2147483647,2147483647,        0,        0,   0,   0,  23.1,  23.1,  23.1
6, 11224, 1,KE9ERI,    21.55, -89,   8, 5,   coast,  -10.30,  65166.00, 3570.91, 3437.88,    0.00, 23.4, 8.04, 8.10, 3.87,  -0.78,   0.16,  -0.32, -64.58,   4.58,   4.52,  -0.21,  -0.54,   0.18,  60.00, 8.09, 0.00, 0.00, 8.04, 8.04, 1, 0,  0,2147483647.0000000,2147483647.0000000,2147483647.0,2147483647,2147483647,2147483647,2147483647,2147483647,2147483647,        0,        0,   0,   0,  23.1,  23.1,  23.1
6, 11224, 1,KE9ERI,    21.63, -90,   9, 5,   coast,   -9.32,  65132.00, 3574.96, 3441.92,    0.00, 23.4, 8.04, 8.10, 3.87,  -0.71,   0.14,  -0.27, -65.06,   5.13,   3.85,  -0.21,  -0.52,   0.11,  60.00, 8.09, 0.00, 0.00, 8.04, 8.04, 1, 0,  0,2147483647.0000000,2147483647.0000000,2147483647.0,2147483647,2147483647,2147483647,2147483647,2147483647,2147483647,        0,        0,   0,   0,  23.1,  23.1,  23.1
6, 11224, 1,KE9ERI,    21.66, -90,   8, 5,   coast,   -9.32,  65132.00, 3574.96, 3441.92,    0.00, 23.4, 8.04, 8.10, 3.87,  -0.71,   0.14,  -0.27, -65.06,   5.13,   3.85,  -0.21,  -0.52,   0.11,  60.00, 8.07, 0.00, 0.00, 8.04, 8.04, 1, 0,  0,2147483647.0000000,2147483647.0000000,2147483647.0,2147483647,2147483647,2147483647,2147483647,2147483647,2147483647,        0,        0,   0,   0,  23.1,  23.1,  23.1
6, 11224, 1,KE9ERI,    21.74, -91,   8, 5,   coast,  -11.28,  65081.00, 3581.03, 3448.00,    0.00, 23.4, 8.04, 8.10, 3.87,  -0.74,   0.22,  -0.29, -65.19,   5.43,   3.66,  -0.22,  -0.49,   0.05,  61.00, 8.07, 0.00, 0.00, 8.04, 8.04, 1, 0,  0,2147483647.0000000,2147483647.0000000,2147483647.0,2147483647,2147483647,2147483647,2147483647,2147483647,2147483647,        0,        0,   0,   0,  23.1,  23.1,  23.1
6, 11224, 1,KE9ERI,    21.77, -89,   5, 5,   coast,  -11.28,  65081.00, 3581.03, 3448.00,    0.00, 23.4, 8.04, 8.10, 3.87,  -0.74,   0.22,  -0.29, -65.19,   5.43,   3.66,  -0.22,  -0.49,   0.05,  61.00, 8.09, 0.00, 0.00, 8.10, 8.04, 1, 0,  0,2147483647.0000000,2147483647.0000000,2147483647.0,2147483647,2147483647,2147483647,2147483647,2147483647,2147483647,        0,        0,   0,   0,  23.1,  23.1,  23.1
6, 11224, 1,KE9ERI,    21.85, -90,   7, 5,   coast,   -9.32,  65055.00, 3584.13, 3451.09,    0.00, 23.4, 8.04, 8.10, 3.87,  -0.73,   0.17,  -0.30, -65.67,   5.62,   3.54,  -0.23,  -0.46,  -0.01,  62.00, 8.09, 0.00, 0.00, 8.10, 8.04, 1, 0,  0,2147483647.0000000,2147483647.0000000,2147483647.0,2147483647,2147483647,2147483647,2147483647,2147483647,2147483647,        0,        0,   0,   0,  23.1,  23.1,  23.1
6, 11224, 1,KE9ERI,    21.88, -90,  10, 5,   coast,   -9.32,  65055.00, 3584.13, 3451.09,    0.00, 23.4, 8.04, 8.10, 3.87,  -0.73,   0.17,  -0.30, -65.67,   5.62,   3.54,  -0.23,  -0.46,  -0.01,  62.00, 8.09, 0.00, 0.00, 8.10, 8.04, 1, 0,  0,2147483647.0000000,2147483647.0000000,2147483647.0,2147483647,2147483647,2147483647,2147483647,2147483647,2147483647,        0,        0,   0,   0,  23.1,  23.1,  23.1
6, 11224, 1,KE9ERI,    21.96, -89,   8, 5,   coast,  -11.28,  65034.00, 3586.63, 3453.60,    0.00, 23.4, 8.04, 8.10, 3.87,  -0.69,   0.22,  -0.05, -70.43,   5.55,   3.30,  -0.24,  -0.42,  -0.06,  62.00, 8.09, 0.00, 0.00, 8.10, 8.04, 1, 0,  0,2147483647.0000000,2147483647.0000000,2147483647.0,2147483647,2147483647,2147483647,2147483647,2147483647,2147483647,        0,        0,   0,   0,  23.1,  23.1,  23.1
6, 11224, 1,KE9ERI,    21.99, -89,   6, 5,   coast,  -11.28,  65034.00, 3586.63, 3453.60,    0.00, 23.4, 8.10, 8.10, 3.87,  -0.69,   0.22,  -0.05, -70.43,   5.55,   3.30,  -0.24,  -0.42,  -0.06,  62.00, 8.10, 0.00, 0.00, 8.04, 8.04, 1, 0,  0,2147483647.0000000,2147483647.0000000,2147483647.0,2147483647,2147483647,2147483647,2147483647,2147483647,2147483647,        0,        0,   0,   0,  23.1,  23.1,  23.1
6, 11224, 1,KE9ERI,    22.07, -89,   6, 5,   coast,   -9.81,  65014.00, 3589.02, 3455.98,    0.00, 23.4, 8.10, 8.10, 3.87,  -0.75,   0.23,  -0.22, -70.43,   5.55,   3.60,  -0.25,  -0.37,  -0.11,  63.00, 8.10, 0.00, 0.00, 8.04, 8.04, 1, 0,  0,2147483647.0000000,2147483647.0000000,2147483647.0,2147483647,2147483647,2147483647,2147483647,2147483647,2147483647,        0,        0,   0,   0,  23.1,  23.1,  23.1
6, 11224, 1,KE9ERI,    22.10, -90,   6, 5,   coast,   -9.81,  65014.00, 3589.02, 3455.98,    0.00, 23.4, 8.04, 8.10, 3.87,  -0.75,   0.23,  -0.22, -70.43,   5.55,   3.60,  -0.25,  -0.37,  -0.11,  63.00, 8.08, 0.00, 0.00, 8.04, 8.04, 1, 0,  0,2147483647.0000000,2147483647.0000000,2147483647.0,2147483647,2147483647,2147483647,2147483647,2147483647,2147483647,        0,        0,   0,   0,  23.1,  23.1,  23.1
6, 11224, 1,KE9ERI,    22.18, -90,   7, 5,   coast,  -10.30,  64973.00, 3593.91, 3460.87,    0.00, 23.4, 8.04, 8.10, 3.87,  -0.70,   0.14,  -0.19, -66.10,   8.18,   1.77,  -0.25,  -0.32,  -0.16,  64.00, 8.08, 0.00, 0.00, 8.04, 8.04, 1, 0,  0,2147483647.0000000,2147483647.0000000,2147483647.0,2147483647,2147483647,2147483647,2147483647,2147483647,2147483647,        0,        0,   0,   0,  23.1,  23.1,  23.1
6, 11224, 1,KE9ERI,    22.21, -90,   9, 5,   coast,  -10.30,  64973.00, 3593.91, 3460.87,    0.00, 23.4, 8.10, 8.10, 3.87,  -0.70,   0.14,  -0.19, -66.10,   8.18,   1.77,  -0.25,  -0.32,  -0.16,  64.00, 8.08, 0.00, 0.00, 8.04, 8.04, 1, 0,  0,2147483647.0000000,2147483647.0000000,2147483647.0,2147483647,2147483647,2147483647,2147483647,2147483647,2147483647,        0,        0,   0,   0,  23.1,  23.1,  23.1
6, 11224, 1,KE9ERI,    22.29, -89,   4, 5,   coast,  -10.30,  64949.00, 3596.77, 3463.74,    0.00, 23.4, 8.10, 8.10, 3.87,  -0.70,   0.14,  -0.19, -63.96,   8.06,   0.73,  -0.26,  -0.27,  -0.19,  65.00, 8.08, 0.00, 0.00, 8.04, 8.04, 1, 0,  0,2147483647.0000000,2147483647.0000000,2147483647.0,2147483647,2147483647,2147483647,2147483647,2147483647,2147483647,        0,        0,   0,   0,  23.1,  23.1,  23.1
6, 11224, 1,KE9ERI,    22.29, -94,   7, 5,   coast,  -10.30,  64949.00, 3596.77, 3463.74,    0.00, 23.4, 8.10, 8.10, 3.87,  -0.70,   0.14,  -0.19, -63.96,   8.06,   0.73,  -0.26,  -0.27,  -0.19,  65.00, 8.08, 0.00, 0.00, 8.04, 8.04, 1, 0,  0,2147483647.0000000,2147483647.0000000,2147483647.0,2147483647,2147483647,2147483647,2147483647,2147483647,2147483647,        0,        0,   0,   0,  23.1,  23.1,  23.1
6, 11224, 1,KE9ERI,    22.32, -90,   6, 5,   coast,  -10.30,  64949.00, 3596.77, 3463.74,    0.00, 23.4, 8.10, 8.10, 3.87,  -0.70,   0.14,  -0.19, -63.96,   8.06,   0.73,  -0.26,  -0.27,  -0.19,  65.00, 8.08, 0.00, 0.00, 8.04, 8.04, 1, 0,  0,2147483647.0000000,2147483647.0000000,2147483647.0,2147483647,2147483647,2147483647,2147483647,2147483647,2147483647,        0,        0,   0,   0,  23.1,  23.1,  23.1
6, 11224, 1,KE9ERI,    22.40, -90,   6, 5,   coast,  -10.79,  64912.00, 3601.19, 3468.15,    0.00, 23.4, 8.10, 8.10, 3.87,  -0.69,   0.15,  -0.15, -62.26,   8.30,   0.31,  -0.27,  -0.21,  -0.22,  66.00, 8.08, 0.00, 0.00, 8.04, 8.04, 1, 0,  0,2147483647.0000000,2147483647.0000000,2147483647.0,2147483647,2147483647,2147483647,2147483647,2147483647,2147483647,        0,        0,   0,   0,  23.1,  23.1,  23.1
6, 11224, 1,KE9ERI,    22.43, -91,  17, 5,   coast,  -10.79,  64912.00, 3601.19, 3468.15,    0.00, 23.4, 8.04, 8.10, 3.87,  -0.69,   0.15,  -0.15, -62.26,   8.30,   0.31,  -0.27,  -0.21,  -0.22,  66.00, 8.10, 0.00, 0.00, 8.10, 8.04, 1, 0,  0,2147483647.0000000,2147483647.0000000,2147483647.0,2147483647,2147483647,2147483647,2147483647,2147483647,2147483647,        0,        0,   0,   0,  23.1,  23.1,  23.1
6, 11224, 1,KE9ERI,    22.43, -91,   8, 5,   coast,  -10.79,  64912.00, 3601.19, 3468.15,    0.00, 23.4, 8.04, 8.10, 3.87,  -0.69,   0.15,  -0.15, -62.26,   8.30,   0.31,  -0.27,  -0.21,  -0.22,  66.00, 8.10, 0.00, 0.00, 8.10, 8.04, 1, 0,  0,2147483647.0000000,2147483647.0000000,2147483647.0,2147483647,2147483647,2147483647,2147483647,2147483647,2147483647,        0,        0,   0,   0,  23.1,  23.1,  23.1
6, 11224, 1,KE9ERI,    22.51, -91,   9, 5,   coast,   -9.81,  64894.00, 3603.34, 3470.30,    0.00, 23.4, 8.04, 8.10, 3.87,  -0.68,   0.07,  -0.18, -60.30,   7.93,  -0.67,  -0.28,  -0.16,  -0.24,  67.00, 8.10, 0.00, 0.00, 8.10, 8.04, 1, 0,  0,2147483647.0000000,2147483647.0000000,2147483647.0,2147483647,2147483647,2147483647,2147483647,2147483647,2147483647,        0,        0,   0,   0,  23.1,  23.1,  23.1
6, 11224, 1,KE9ERI,    22.54, -91,   8, 5,   coast,   -9.81,  64894.00, 3603.34, 3470.30,    0.00, 23.4, 8.04, 8.10, 3.87,  -0.68,   0.07,  -0.18, -60.30,   7.93,  -0.67,  -0.28,  -0.16,  -0.24,  67.00, 8.08, 0.00, 0.00, 8.04, 8.04, 1, 0,  0,2147483647.0000000,2147483647.0000000,2147483647.0,2147483647,2147483647,2147483647,2147483647,2147483647,2147483647,        0,        0,   0,   0,  23.1,  23.1,  23.1
